sub_id,sub_idx,Cond,Order,Group,Trial_idx,Outcome,Choice_t,Correct,winstay_t1,winstay_t2,winstay_t3,winstay_t4,loseshift_t1,loseshift_t2,loseshift_t3,loseshift_t4,RT,State
1A_002,1,1,1,1,1,0,1,0,NaN,NaN,NaN,NaN,NaN,NaN,NaN,NaN,1.141878228,0
1A_002,1,1,1,1,2,0,1,0,0,NaN,NaN,NaN,-1,NaN,NaN,NaN,0.579900136,0
1A_002,1,1,1,1,3,0,0,1,0,0,NaN,NaN,-1,-1,NaN,NaN,1.051747016,0
1A_002,1,1,1,1,4,0,1,0,0,0,0,NaN,1,-1,-1,NaN,0.434743007,0
1A_002,1,1,1,1,5,0,1,0,0,0,0,0,-1,1,-1,-1,0.634616794,0
1A_002,1,1,1,1,6,0,1,0,0,0,0,0,-1,-1,1,-1,0.625276454,0
1A_002,1,1,1,1,7,0,1,0,0,0,0,0,-1,-1,-1,1,0.559192959,0
1A_002,1,1,1,1,8,1,0,1,0,0,0,0,-1,-1,-1,-1,0.795415898,0
1A_002,1,1,1,1,9,0,0,1,-1,0,0,0,0,-1,-1,-1,0.807961221,0
1A_002,1,1,1,1,10,1,0,1,0,-1,0,0,1,0,-1,-1,0.651396628,0
1A_002,1,1,1,1,11,1,0,1,-1,0,-1,0,0,1,0,-1,0.87223882,0
1A_002,1,1,1,1,12,1,0,1,-1,-1,0,-1,0,0,1,0,0.766982955,0
1A_002,1,1,1,1,13,1,0,1,-1,-1,-1,0,0,0,0,1,0.567871551,0
1A_002,1,1,1,1,14,1,0,1,-1,-1,-1,-1,0,0,0,0,0.593903428,0
1A_002,1,1,1,1,15,1,0,1,-1,-1,-1,-1,0,0,0,0,0.738914393,0
1A_002,1,1,1,1,16,1,0,1,-1,-1,-1,-1,0,0,0,0,0.78534369,0
1A_002,1,1,1,1,17,1,0,1,-1,-1,-1,-1,0,0,0,0,0.520135506,0
1A_002,1,1,1,1,18,1,0,1,-1,-1,-1,-1,0,0,0,0,0.677675832,0
1A_002,1,1,1,1,19,1,0,1,-1,-1,-1,-1,0,0,0,0,0.769853384,0
1A_002,1,1,1,1,20,0,0,1,-1,-1,-1,-1,0,0,0,0,0.802454564,0
1A_002,1,1,1,1,21,1,0,1,0,-1,-1,-1,1,0,0,0,0.753604826,0
1A_002,1,1,1,1,22,0,0,1,-1,0,-1,-1,0,1,0,0,0.654640426,0
1A_002,1,1,1,1,23,0,0,1,0,-1,0,-1,1,0,1,0,0.526221226,0
1A_002,1,1,1,1,24,0,0,1,0,0,-1,0,1,1,0,1,0.565798853,0
1A_002,1,1,1,1,25,0,1,0,0,0,0,-1,1,1,1,0,0.475458994,0
1A_002,1,1,1,1,26,0,0,1,0,0,0,0,-1,1,1,1,0.57187379,0
1A_002,1,1,1,1,27,0,1,0,0,0,0,0,1,-1,1,1,0.546643847,0
1A_002,1,1,1,1,28,1,0,1,0,0,0,0,-1,1,-1,1,0.822585496,0
1A_002,1,1,1,1,29,1,0,1,-1,0,0,0,0,-1,1,-1,0.815866949,0
1A_002,1,1,1,1,30,1,0,1,-1,-1,0,0,0,0,-1,1,0.618325634,0
1A_002,1,1,1,1,31,1,0,1,-1,-1,-1,0,0,0,0,-1,0.752938735,0
1A_002,1,1,1,1,32,1,0,1,-1,-1,-1,-1,0,0,0,0,0.664509699,0
1A_002,1,1,1,1,33,1,0,1,-1,-1,-1,-1,0,0,0,0,0.659618198,0
1A_002,1,1,1,1,34,1,0,1,-1,-1,-1,-1,0,0,0,0,0.650352895,0
1A_002,1,1,1,1,35,1,0,1,-1,-1,-1,-1,0,0,0,0,0.780064942,0
1A_002,1,1,1,1,36,0,0,1,-1,-1,-1,-1,0,0,0,0,0.513825575,0
1A_002,1,1,1,1,37,1,0,1,0,-1,-1,-1,1,0,0,0,0.694812216,0
1A_002,1,1,1,1,38,1,0,1,-1,0,-1,-1,0,1,0,0,0.530459897,0
1A_002,1,1,1,1,39,1,0,1,-1,-1,0,-1,0,0,1,0,0.565034608,0
1A_002,1,1,1,1,40,1,0,1,-1,-1,-1,0,0,0,0,1,0.540895216,0
1A_002,1,1,1,1,41,1,0,1,-1,-1,-1,-1,0,0,0,0,0.63660439,0
1A_002,1,1,1,1,42,1,0,1,-1,-1,-1,-1,0,0,0,0,0.647234868,0
1A_002,1,1,1,1,43,1,0,1,-1,-1,-1,-1,0,0,0,0,0.626982287,0
1A_002,1,1,1,1,44,1,0,1,-1,-1,-1,-1,0,0,0,0,0.603088083,0
1A_002,1,1,1,1,45,1,0,1,-1,-1,-1,-1,0,0,0,0,0.631164692,0
1A_002,1,1,1,1,46,1,0,1,-1,-1,-1,-1,0,0,0,0,0.645316717,0
1A_002,1,1,1,1,47,1,0,1,-1,-1,-1,-1,0,0,0,0,0.608453279,0
1A_002,1,1,1,1,48,1,0,1,-1,-1,-1,-1,0,0,0,0,0.674030767,0
1A_002,1,1,1,1,49,1,0,1,-1,-1,-1,-1,0,0,0,0,0.620583636,0
1A_002,1,1,1,1,50,1,0,1,-1,-1,-1,-1,0,0,0,0,0.598755855,0
1A_002,1,1,1,1,51,1,0,1,-1,-1,-1,-1,0,0,0,0,0.553388293,0
1A_002,1,1,1,1,52,1,0,1,-1,-1,-1,-1,0,0,0,0,0.50007371,0
1A_002,1,1,1,1,53,1,0,1,-1,-1,-1,-1,0,0,0,0,0.47997643,0
1A_002,1,1,1,1,54,1,0,1,-1,-1,-1,-1,0,0,0,0,0.53509763,0
1A_002,1,1,1,1,55,1,0,1,-1,-1,-1,-1,0,0,0,0,0.452624526,0
1A_002,1,1,1,1,56,0,0,0,-1,-1,-1,-1,0,0,0,0,0.528904381,1
1A_002,1,1,1,1,57,1,1,1,0,-1,-1,-1,1,0,0,0,0.649920595,1
1A_002,1,1,1,1,58,1,1,1,1,0,-1,-1,0,1,0,0,0.602180785,1
1A_002,1,1,1,1,59,1,1,1,1,1,0,-1,0,0,1,0,0.611651124,1
1A_002,1,1,1,1,60,1,1,1,1,1,1,0,0,0,0,1,0.603658553,1
1A_002,1,1,1,1,61,1,1,1,1,1,1,1,0,0,0,0,0.484285246,1
1A_002,1,1,1,1,62,1,1,1,1,1,1,1,0,0,0,0,0.610962687,1
1A_002,1,1,1,1,63,1,1,1,1,1,1,1,0,0,0,0,0.611567825,1
1A_002,1,1,1,1,64,1,1,1,1,1,1,1,0,0,0,0,0.609883786,1
1A_002,1,1,1,1,65,1,1,1,1,1,1,1,0,0,0,0,0.543694554,1
1A_002,1,1,1,1,66,0,1,1,1,1,1,1,0,0,0,0,0.690403473,1
1A_002,1,1,1,1,67,0,0,0,0,1,1,1,-1,0,0,0,0.464881083,1
1A_002,1,1,1,1,68,0,0,0,0,0,1,1,1,-1,0,0,1.179863077,1
1A_002,1,1,1,1,69,1,0,0,0,0,0,1,1,1,-1,0,0.567960504,1
1A_002,1,1,1,1,70,0,0,0,-1,0,0,0,0,1,1,-1,0.575782807,1
1A_002,1,1,1,1,71,0,1,0,0,-1,0,0,1,0,1,1,0.627066122,0
1A_002,1,1,1,1,72,1,0,1,0,0,-1,0,-1,1,0,1,0.542977946,0
1A_002,1,1,1,1,73,0,1,0,-1,0,0,-1,0,-1,1,0,0.470223064,0
1A_002,1,1,1,1,74,1,0,1,0,-1,0,0,-1,0,-1,1,0.528995808,0
1A_002,1,1,1,1,75,1,0,1,-1,0,-1,0,0,-1,0,-1,0.825985673,0
1A_002,1,1,1,1,76,1,0,1,-1,-1,0,-1,0,0,-1,0,0.540298557,0
1A_002,1,1,1,1,77,0,1,0,-1,-1,-1,0,0,0,0,-1,0.686409,0
1A_002,1,1,1,1,78,0,1,0,0,-1,-1,-1,-1,0,0,0,0.477072049,0
1A_002,1,1,1,1,79,1,0,1,0,0,-1,-1,-1,-1,0,0,0.592150665,0
1A_002,1,1,1,1,80,1,0,1,-1,0,0,-1,0,-1,-1,0,0.807211566,0
1A_002,1,1,1,1,81,1,1,0,-1,-1,0,0,0,0,-1,-1,0.745070526,0
1A_002,1,1,1,1,82,1,0,1,1,-1,-1,0,0,0,0,-1,0.552605621,0
1A_002,1,1,1,1,83,0,1,0,-1,1,-1,-1,0,0,0,0,0.935306744,0
1A_002,1,1,1,1,84,1,0,1,0,-1,1,-1,-1,0,0,0,0.667789545,0
1A_002,1,1,1,1,85,0,1,0,-1,0,-1,1,0,-1,0,0,0.769487524,0
1A_002,1,1,1,1,86,0,1,0,0,-1,0,-1,-1,0,-1,0,0.492411657,0
1A_002,1,1,1,1,87,1,0,1,0,0,-1,0,-1,-1,0,-1,0.570947141,0
1A_002,1,1,1,1,88,1,0,1,-1,0,0,-1,0,-1,-1,0,0.548508542,0
1A_002,1,1,1,1,89,0,0,1,-1,-1,0,0,0,0,-1,-1,0.682584056,0
1A_002,1,1,1,1,90,0,1,0,0,-1,-1,0,1,0,0,-1,0.418360074,0
1A_002,1,1,1,1,91,1,1,1,0,0,-1,-1,-1,1,0,0,0.529270652,1
1A_002,1,1,1,1,92,0,1,1,1,0,0,-1,0,-1,1,0,0.641238056,1
1A_002,1,1,1,1,93,0,0,0,0,1,0,0,-1,0,-1,1,0.353600154,1
1A_002,1,1,1,1,94,1,1,1,0,0,1,0,1,-1,0,-1,0.870260266,1
1A_002,1,1,1,1,95,0,0,0,1,0,0,1,0,1,-1,0,0.579617608,1
1A_002,1,1,1,1,96,1,1,1,0,1,0,0,1,0,1,-1,0.588054361,1
1A_002,1,1,1,1,97,0,1,1,1,0,1,0,0,1,0,1,0.528667445,1
1A_002,1,1,1,1,98,0,0,0,0,1,0,1,-1,0,1,0,0.480184493,1
1A_002,1,1,1,1,99,0,0,0,0,0,1,0,1,-1,0,1,0.52450579,1
1A_002,1,1,1,1,100,0,0,0,0,0,0,1,1,1,-1,0,0.588211997,1
1A_002,1,1,1,1,101,1,1,1,0,0,0,0,1,1,1,-1,0.526168271,1
1A_002,1,1,1,1,102,1,0,0,1,0,0,0,0,1,1,1,1.009096267,1
1A_002,1,1,1,1,103,0,1,1,-1,1,0,0,0,0,1,1,1.006296972,1
1A_002,1,1,1,1,104,0,1,1,0,-1,1,0,-1,0,0,1,0.42870035,1
1A_002,1,1,1,1,105,1,1,1,0,0,-1,1,-1,-1,0,0,0.628576523,1
1A_002,1,1,1,1,106,0,1,0,1,0,0,-1,0,-1,-1,0,0.693440528,0
1A_002,1,1,1,1,107,0,1,0,0,1,0,0,-1,0,-1,-1,0.674452928,0
1A_002,1,1,1,1,108,0,1,0,0,0,1,0,-1,-1,0,-1,0.703387652,0
1A_002,1,1,1,1,109,1,0,1,0,0,0,1,-1,-1,-1,0,0.94446117,0
1A_002,1,1,1,1,110,0,0,0,-1,0,0,0,0,-1,-1,-1,0,0
1A_002,1,1,1,1,111,0,1,0,NaN,-1,0,0,NaN,0,-1,-1,0.614992248,0
1A_002,1,1,1,1,112,1,0,1,0,NaN,-1,0,-1,NaN,0,-1,0.392571654,0
1A_002,1,1,1,1,113,0,1,0,-1,0,NaN,-1,0,-1,NaN,0,1.056267303,0
1A_002,1,1,1,1,114,1,1,0,0,-1,0,NaN,-1,0,-1,NaN,0.393509598,0
1A_002,1,1,1,1,115,1,1,0,1,0,-1,0,0,-1,0,-1,0.846987961,0
1A_002,1,1,1,1,116,0,1,0,1,1,0,-1,0,0,-1,0,0.744249723,0
1A_002,1,1,1,1,117,0,1,0,0,1,1,0,-1,0,0,-1,0.50307981,0
1A_002,1,1,1,1,118,1,0,1,0,0,1,1,-1,-1,0,0,0.488084288,0
1A_002,1,1,1,1,119,0,1,0,-1,0,0,1,0,-1,-1,0,0.69109028,0
1A_002,1,1,1,1,120,1,1,0,0,-1,0,0,-1,0,-1,-1,0.539705229,0
1A_002,1,1,1,1,121,1,1,0,1,0,-1,0,0,-1,0,-1,0.999832841,0
1A_002,1,1,1,1,122,1,0,1,1,1,0,-1,0,0,-1,0,0.678979606,0
1A_002,1,1,1,1,123,0,1,0,-1,1,1,0,0,0,0,-1,1.420094307,0
1A_002,1,1,1,1,124,0,1,0,0,-1,1,1,-1,0,0,0,0.66229988,0
1A_002,1,1,1,1,125,1,1,0,0,0,-1,1,-1,-1,0,0,0.704240309,0
1A_002,1,1,1,1,126,1,1,1,1,0,0,-1,0,-1,-1,0,0.829672962,1
1A_002,1,1,1,1,127,0,1,1,1,1,0,0,0,0,-1,-1,0.619413468,1
1A_002,1,1,1,1,128,0,1,1,0,1,1,0,-1,0,0,-1,0.664520981,1
1A_002,1,1,1,1,129,1,1,1,0,0,1,1,-1,-1,0,0,0.562708063,1
1A_002,1,1,1,1,130,1,1,1,1,0,0,1,0,-1,-1,0,0.729341768,1
1A_002,1,1,1,1,131,1,1,1,1,1,0,0,0,0,-1,-1,0.718350746,1
1A_002,1,1,1,1,132,1,1,1,1,1,1,0,0,0,0,-1,0.526391363,1
1A_002,1,1,1,1,133,1,1,1,1,1,1,1,0,0,0,0,0.823083082,1
1A_002,1,1,1,1,134,1,1,1,1,1,1,1,0,0,0,0,0.540897537,1
1A_002,1,1,1,1,135,1,1,1,1,1,1,1,0,0,0,0,0.802676423,1
1A_002,1,1,1,1,136,1,1,1,1,1,1,1,0,0,0,0,0.758927788,1
1A_002,1,1,1,1,137,0,1,1,1,1,1,1,0,0,0,0,0.671110633,1
1A_002,1,1,1,1,138,0,0,0,0,1,1,1,-1,0,0,0,0.676860026,1
1A_002,1,1,1,1,139,0,0,0,0,0,1,1,1,-1,0,0,0.67212134,1
1A_002,1,1,1,1,140,0,0,0,0,0,0,1,1,1,-1,0,0.480218679,1
1A_002,1,1,1,1,141,1,1,1,0,0,0,0,1,1,1,-1,0.663044808,1
1A_002,1,1,1,1,142,0,1,1,1,0,0,0,0,1,1,1,0.977964049,1
1A_002,1,1,1,1,143,1,1,1,0,1,0,0,-1,0,1,1,0.916810331,1
1A_002,1,1,1,1,144,1,1,1,1,0,1,0,0,-1,0,1,0.7302617,1
1A_002,1,1,1,1,145,1,1,1,1,1,0,1,0,0,-1,0,0.833923029,1
1A_002,1,1,1,1,146,0,1,1,1,1,1,0,0,0,0,-1,0.921883265,1
1A_002,1,1,1,1,147,1,1,1,0,1,1,1,-1,0,0,0,0.835196042,1
1A_002,1,1,1,1,148,1,0,0,1,0,1,1,0,-1,0,0,1.066085541,1
1A_002,1,1,1,1,149,0,0,0,-1,1,0,1,0,0,-1,0,0,1
1A_002,1,1,1,1,150,0,0,0,NaN,-1,1,0,NaN,0,0,-1,0.603920714,1
1A_002,1,1,1,1,151,1,1,1,0,NaN,-1,1,1,NaN,0,0,0.585089855,1
1A_002,1,1,1,1,152,1,1,1,1,0,NaN,-1,0,1,NaN,0,0.691194423,1
1A_002,1,1,1,1,153,1,1,1,1,1,0,NaN,0,0,1,NaN,0.770407273,1
1A_002,1,1,1,1,154,1,1,1,1,1,1,0,0,0,0,1,0.453869401,1
1A_002,1,1,1,1,155,1,1,1,1,1,1,1,0,0,0,0,0.524407231,1
1A_002,1,1,1,1,156,0,1,1,1,1,1,1,0,0,0,0,1.062610773,1
1A_002,1,1,1,1,157,1,1,1,0,1,1,1,-1,0,0,0,0.49007892,1
1A_002,1,1,1,1,158,0,1,1,1,0,1,1,0,-1,0,0,0.58066597,1
1A_002,1,1,1,1,159,0,0,0,0,1,0,1,-1,0,-1,0,0.438533744,1
1A_002,1,1,1,1,160,0,0,0,0,0,1,0,1,-1,0,-1,0.611622847,1
1A_005,2,1,1,1,1,0,1,0,NaN,NaN,NaN,NaN,NaN,NaN,NaN,NaN,0.72830956,0
1A_005,2,1,1,1,2,0,1,0,0,NaN,NaN,NaN,-1,NaN,NaN,NaN,1.020082837,0
1A_005,2,1,1,1,3,1,0,1,0,0,NaN,NaN,-1,-1,NaN,NaN,0.673204756,0
1A_005,2,1,1,1,4,1,0,1,-1,0,0,NaN,0,-1,-1,NaN,0.577033666,0
1A_005,2,1,1,1,5,1,0,1,-1,-1,0,0,0,0,-1,-1,0.557926448,0
1A_005,2,1,1,1,6,1,1,0,-1,-1,-1,0,0,0,0,-1,0.734061647,0
1A_005,2,1,1,1,7,0,1,0,1,-1,-1,-1,0,0,0,0,0.497162689,0
1A_005,2,1,1,1,8,0,0,1,0,1,-1,-1,-1,0,0,0,0.99106625,0
1A_005,2,1,1,1,9,1,0,1,0,0,1,-1,1,-1,0,0,0.718028947,0
1A_005,2,1,1,1,10,1,0,1,-1,0,0,1,0,1,-1,0,0.667051271,0
1A_005,2,1,1,1,11,0,1,0,-1,-1,0,0,0,0,1,-1,1.199314723,0
1A_005,2,1,1,1,12,1,0,1,0,-1,-1,0,-1,0,0,1,0.941490991,0
1A_005,2,1,1,1,13,1,0,1,-1,0,-1,-1,0,-1,0,0,1.03101492,0
1A_005,2,1,1,1,14,0,0,1,-1,-1,0,-1,0,0,-1,0,0.812139721,0
1A_005,2,1,1,1,15,1,0,1,0,-1,-1,0,1,0,0,-1,0.518082644,0
1A_005,2,1,1,1,16,0,1,0,-1,0,-1,-1,0,1,0,0,0.899016241,0
1A_005,2,1,1,1,17,0,1,0,0,-1,0,-1,-1,0,1,0,0.87301231,0
1A_005,2,1,1,1,18,0,0,1,0,0,-1,0,-1,-1,0,1,0.690599249,0
1A_005,2,1,1,1,19,1,0,1,0,0,0,-1,1,-1,-1,0,0.806024792,0
1A_005,2,1,1,1,20,0,0,1,-1,0,0,0,0,1,-1,-1,0.862002329,0
1A_005,2,1,1,1,21,0,1,0,0,-1,0,0,1,0,1,-1,0.511809318,0
1A_005,2,1,1,1,22,0,0,0,0,0,-1,0,-1,1,0,1,0,0
1A_005,2,1,1,1,23,0,1,0,NaN,0,0,-1,NaN,-1,1,0,0.694222329,0
1A_005,2,1,1,1,24,1,0,1,0,NaN,0,0,-1,NaN,-1,1,0.65227387,0
1A_005,2,1,1,1,25,0,0,1,-1,0,NaN,0,0,-1,NaN,-1,0.408944415,0
1A_005,2,1,1,1,26,0,1,0,0,-1,0,NaN,1,0,-1,NaN,0.5310572,0
1A_005,2,1,1,1,27,0,1,0,0,0,-1,0,-1,1,0,-1,1.123610397,0
1A_005,2,1,1,1,28,1,0,1,0,0,0,-1,-1,-1,1,0,1.088950637,0
1A_005,2,1,1,1,29,0,0,1,-1,0,0,0,0,-1,-1,1,0.784195431,0
1A_005,2,1,1,1,30,0,0,1,0,-1,0,0,1,0,-1,-1,1.146532416,0
1A_005,2,1,1,1,31,0,0,1,0,0,-1,0,1,1,0,-1,0.699139744,0
1A_005,2,1,1,1,32,0,1,0,0,0,0,-1,1,1,1,0,0.759111778,0
1A_005,2,1,1,1,33,1,0,1,0,0,0,0,-1,1,1,1,1.252076801,0
1A_005,2,1,1,1,34,1,0,1,-1,0,0,0,0,-1,1,1,0.548988564,0
1A_005,2,1,1,1,35,1,0,1,-1,-1,0,0,0,0,-1,1,0.572634369,0
1A_005,2,1,1,1,36,1,0,1,-1,-1,-1,0,0,0,0,-1,0.494738298,0
1A_005,2,1,1,1,37,1,0,1,-1,-1,-1,-1,0,0,0,0,0.526106007,0
1A_005,2,1,1,1,38,0,0,1,-1,-1,-1,-1,0,0,0,0,0.497143613,0
1A_005,2,1,1,1,39,0,1,0,0,-1,-1,-1,1,0,0,0,0.636102408,0
1A_005,2,1,1,1,40,0,1,0,0,0,-1,-1,-1,1,0,0,0.302536866,0
1A_005,2,1,1,1,41,0,1,0,0,0,0,-1,-1,-1,1,0,0.603624814,0
1A_005,2,1,1,1,42,0,0,0,0,0,0,0,-1,-1,-1,1,0,0
1A_005,2,1,1,1,43,1,0,1,NaN,0,0,0,NaN,-1,-1,-1,0.618708092,0
1A_005,2,1,1,1,44,0,0,1,-1,NaN,0,0,0,NaN,-1,-1,0.412204358,0
1A_005,2,1,1,1,45,1,1,0,0,-1,NaN,0,1,0,NaN,-1,0.512221347,0
1A_005,2,1,1,1,46,1,1,0,1,0,-1,NaN,0,1,0,NaN,0.884242279,0
1A_005,2,1,1,1,47,0,1,0,1,1,0,-1,0,0,1,0,0.941005671,0
1A_005,2,1,1,1,48,0,1,0,0,1,1,0,-1,0,0,1,0.41396223,0
1A_005,2,1,1,1,49,0,1,0,0,0,1,1,-1,-1,0,0,0.451979735,0
1A_005,2,1,1,1,50,1,0,1,0,0,0,1,-1,-1,-1,0,0.775565229,0
1A_005,2,1,1,1,51,0,0,1,-1,0,0,0,0,-1,-1,-1,0.551003786,0
1A_005,2,1,1,1,52,1,0,1,0,-1,0,0,1,0,-1,-1,0.718191957,0
1A_005,2,1,1,1,53,1,0,1,-1,0,-1,0,0,1,0,-1,0.405720205,0
1A_005,2,1,1,1,54,1,0,1,-1,-1,0,-1,0,0,1,0,0.452344132,0
1A_005,2,1,1,1,55,1,0,1,-1,-1,-1,0,0,0,0,1,0.512431922,0
1A_005,2,1,1,1,56,0,0,0,-1,-1,-1,-1,0,0,0,0,0.467826281,1
1A_005,2,1,1,1,57,0,0,0,0,-1,-1,-1,1,0,0,0,0.478150676,1
1A_005,2,1,1,1,58,1,0,0,0,0,-1,-1,1,1,0,0,0.648224458,1
1A_005,2,1,1,1,59,0,0,0,-1,0,0,-1,0,1,1,0,1.353894075,1
1A_005,2,1,1,1,60,0,0,0,0,-1,0,0,1,0,1,1,0,1
1A_005,2,1,1,1,61,0,0,0,NaN,0,-1,0,NaN,1,0,1,0.345416117,1
1A_005,2,1,1,1,62,1,1,1,0,NaN,0,-1,1,NaN,1,0,0.425331334,1
1A_005,2,1,1,1,63,1,1,1,1,0,NaN,0,0,1,NaN,1,0.514263342,1
1A_005,2,1,1,1,64,1,1,1,1,1,0,NaN,0,0,1,NaN,0.500230207,1
1A_005,2,1,1,1,65,1,1,1,1,1,1,0,0,0,0,1,0.449932605,1
1A_005,2,1,1,1,66,1,1,1,1,1,1,1,0,0,0,0,0.422417271,1
1A_005,2,1,1,1,67,0,1,1,1,1,1,1,0,0,0,0,0.492739687,1
1A_005,2,1,1,1,68,0,0,0,0,1,1,1,-1,0,0,0,0.455025935,1
1A_005,2,1,1,1,69,0,1,1,0,0,1,1,1,-1,0,0,1.081318386,1
1A_005,2,1,1,1,70,0,0,0,0,0,0,1,-1,1,-1,0,0.451725874,1
1A_005,2,1,1,1,71,1,0,1,0,0,0,0,1,-1,1,-1,1.200157866,0
1A_005,2,1,1,1,72,0,1,0,-1,0,0,0,0,1,-1,1,0.324611637,0
1A_005,2,1,1,1,73,1,0,1,0,-1,0,0,-1,0,1,-1,0.562685465,0
1A_005,2,1,1,1,74,1,0,1,-1,0,-1,0,0,-1,0,1,0.491563591,0
1A_005,2,1,1,1,75,0,0,1,-1,-1,0,-1,0,0,-1,0,0.48672044,0
1A_005,2,1,1,1,76,1,0,1,0,-1,-1,0,1,0,0,-1,0.656818065,0
1A_005,2,1,1,1,77,1,1,0,-1,0,-1,-1,0,1,0,0,0.457015193,0
1A_005,2,1,1,1,78,0,1,0,1,-1,0,-1,0,0,1,0,0.473890091,0
1A_005,2,1,1,1,79,1,1,0,0,1,-1,0,-1,0,0,1,0.505272228,0
1A_005,2,1,1,1,80,1,0,1,1,0,1,-1,0,-1,0,0,0.677203887,0
1A_005,2,1,1,1,81,0,0,1,-1,1,0,1,0,0,-1,0,0.468716523,0
1A_005,2,1,1,1,82,0,1,0,0,-1,1,0,1,0,0,-1,0.45244541,0
1A_005,2,1,1,1,83,1,0,1,0,0,-1,1,-1,1,0,0,0.49129498,0
1A_005,2,1,1,1,84,1,0,1,-1,0,0,-1,0,-1,1,0,0.475007915,0
1A_005,2,1,1,1,85,0,0,1,-1,-1,0,0,0,0,-1,1,0.476056455,0
1A_005,2,1,1,1,86,1,0,1,0,-1,-1,0,1,0,0,-1,0.915391988,0
1A_005,2,1,1,1,87,0,1,0,-1,0,-1,-1,0,1,0,0,0.671629856,0
1A_005,2,1,1,1,88,1,1,0,0,-1,0,-1,-1,0,1,0,0.640490667,0
1A_005,2,1,1,1,89,1,0,1,1,0,-1,0,0,-1,0,1,0.942643615,0
1A_005,2,1,1,1,90,0,0,1,-1,1,0,-1,0,0,-1,0,0.468213552,0
1A_005,2,1,1,1,91,0,0,0,0,-1,1,0,1,0,0,-1,1.457228219,1
1A_005,2,1,1,1,92,1,1,1,0,0,-1,1,1,1,0,0,0.496511513,1
1A_005,2,1,1,1,93,0,1,1,1,0,0,-1,0,1,1,0,0.506449407,1
1A_005,2,1,1,1,94,0,0,0,0,1,0,0,-1,0,1,1,0.468949061,1
1A_005,2,1,1,1,95,0,0,0,0,0,1,0,1,-1,0,1,0.459162427,1
1A_005,2,1,1,1,96,1,1,1,0,0,0,1,1,1,-1,0,0.677985422,1
1A_005,2,1,1,1,97,1,1,1,1,0,0,0,0,1,1,-1,1.156950275,1
1A_005,2,1,1,1,98,1,1,1,1,1,0,0,0,0,1,1,0.761381441,1
1A_005,2,1,1,1,99,1,1,1,1,1,1,0,0,0,0,1,0.557523403,1
1A_005,2,1,1,1,100,1,1,1,1,1,1,1,0,0,0,0,0.654934884,1
1A_005,2,1,1,1,101,1,1,1,1,1,1,1,0,0,0,0,0.343718426,1
1A_005,2,1,1,1,102,1,1,1,1,1,1,1,0,0,0,0,0.52729908,1
1A_005,2,1,1,1,103,1,1,1,1,1,1,1,0,0,0,0,0.562508388,1
1A_005,2,1,1,1,104,1,1,1,1,1,1,1,0,0,0,0,0.467983715,1
1A_005,2,1,1,1,105,0,0,0,1,1,1,1,0,0,0,0,1.096718434,1
1A_005,2,1,1,1,106,1,0,1,0,1,1,1,1,0,0,0,0.423654923,0
1A_005,2,1,1,1,107,1,0,1,-1,0,1,1,0,1,0,0,0.492964153,0
1A_005,2,1,1,1,108,1,0,1,-1,-1,0,1,0,0,1,0,0.97007628,0
1A_005,2,1,1,1,109,1,0,1,-1,-1,-1,0,0,0,0,1,0.707125907,0
1A_005,2,1,1,1,110,1,0,1,-1,-1,-1,-1,0,0,0,0,0.506113502,0
1A_005,2,1,1,1,111,1,0,1,-1,-1,-1,-1,0,0,0,0,1.36512361,0
1A_005,2,1,1,1,112,1,0,1,-1,-1,-1,-1,0,0,0,0,0.532669492,0
1A_005,2,1,1,1,113,0,0,1,-1,-1,-1,-1,0,0,0,0,1.141043357,0
1A_005,2,1,1,1,114,0,1,0,0,-1,-1,-1,1,0,0,0,0.403498865,0
1A_005,2,1,1,1,115,1,0,1,0,0,-1,-1,-1,1,0,0,0.447425938,0
1A_005,2,1,1,1,116,1,0,1,-1,0,0,-1,0,-1,1,0,0.990352469,0
1A_005,2,1,1,1,117,1,0,1,-1,-1,0,0,0,0,-1,1,0.48194515,0
1A_005,2,1,1,1,118,1,0,1,-1,-1,-1,0,0,0,0,-1,0.649842482,0
1A_005,2,1,1,1,119,1,1,0,-1,-1,-1,-1,0,0,0,0,0.686175954,0
1A_005,2,1,1,1,120,0,1,0,1,-1,-1,-1,0,0,0,0,0.628276126,0
1A_005,2,1,1,1,121,1,0,1,0,1,-1,-1,-1,0,0,0,0.741418097,0
1A_005,2,1,1,1,122,0,1,0,-1,0,1,-1,0,-1,0,0,0.706483833,0
1A_005,2,1,1,1,123,1,0,1,0,-1,0,1,-1,0,-1,0,0.477924772,0
1A_005,2,1,1,1,124,0,0,1,-1,0,-1,0,0,-1,0,-1,0.492007195,0
1A_005,2,1,1,1,125,1,0,1,0,-1,0,-1,1,0,-1,0,1.213998395,0
1A_005,2,1,1,1,126,0,0,0,-1,0,-1,0,0,1,0,-1,0.8652115,1
1A_005,2,1,1,1,127,0,0,0,0,-1,0,-1,1,0,1,0,0.986628913,1
1A_005,2,1,1,1,128,0,0,0,0,0,-1,0,1,1,0,1,0.815527413,1
1A_005,2,1,1,1,129,1,1,1,0,0,0,-1,1,1,1,0,0.4728069,1
1A_005,2,1,1,1,130,0,1,1,1,0,0,0,0,1,1,1,0.455431734,1
1A_005,2,1,1,1,131,1,1,1,0,1,0,0,-1,0,1,1,0.5283531,1
1A_005,2,1,1,1,132,1,0,0,1,0,1,0,0,-1,0,1,0.486365418,1
1A_005,2,1,1,1,133,0,0,0,-1,1,0,1,0,0,-1,0,0.486140195,1
1A_005,2,1,1,1,134,1,0,0,0,-1,1,0,1,0,0,-1,1.220617353,1
1A_005,2,1,1,1,135,0,0,0,-1,0,-1,1,0,1,0,0,1.172389616,1
1A_005,2,1,1,1,136,1,0,0,0,-1,0,-1,1,0,1,0,0.465131253,1
1A_005,2,1,1,1,137,1,1,1,-1,0,-1,0,0,1,0,1,0.413681191,1
1A_005,2,1,1,1,138,1,0,0,1,-1,0,-1,0,0,1,0,0.544301913,1
1A_005,2,1,1,1,139,1,1,1,-1,1,-1,0,0,0,0,1,0.487423887,1
1A_005,2,1,1,1,140,0,0,0,1,-1,1,-1,0,0,0,0,0.459589944,1
1A_005,2,1,1,1,141,1,1,1,0,1,-1,1,1,0,0,0,0.457857368,1
1A_005,2,1,1,1,142,1,1,1,1,0,1,-1,0,1,0,0,0.616513358,1
1A_005,2,1,1,1,143,1,1,1,1,1,0,1,0,0,1,0,0.465471164,1
1A_005,2,1,1,1,144,1,1,1,1,1,1,0,0,0,0,1,0.627005817,1
1A_005,2,1,1,1,145,0,1,1,1,1,1,1,0,0,0,0,0.630993001,1
1A_005,2,1,1,1,146,1,0,0,0,1,1,1,-1,0,0,0,0.535545416,1
1A_005,2,1,1,1,147,0,0,0,-1,0,1,1,0,-1,0,0,0.722812271,1
1A_005,2,1,1,1,148,0,0,0,0,-1,0,1,1,0,-1,0,0.843827956,1
1A_005,2,1,1,1,149,1,1,1,0,0,-1,0,1,1,0,-1,0.67486575,1
1A_005,2,1,1,1,150,1,1,1,1,0,0,-1,0,1,1,0,0.476337484,1
1A_005,2,1,1,1,151,0,1,1,1,1,0,0,0,0,1,1,0.447589001,1
1A_005,2,1,1,1,152,0,0,0,0,1,1,0,-1,0,0,1,0.858093626,1
1A_005,2,1,1,1,153,1,0,0,0,0,1,1,1,-1,0,0,0.597749436,1
1A_005,2,1,1,1,154,1,0,0,-1,0,0,1,0,1,-1,0,0.499250801,1
1A_005,2,1,1,1,155,1,0,0,-1,-1,0,0,0,0,1,-1,0.435376087,1
1A_005,2,1,1,1,156,1,0,0,-1,-1,-1,0,0,0,0,1,0.430842301,1
1A_005,2,1,1,1,157,0,0,0,-1,-1,-1,-1,0,0,0,0,0.765494373,1
1A_005,2,1,1,1,158,0,0,0,0,-1,-1,-1,1,0,0,0,0.557176966,1
1A_005,2,1,1,1,159,1,1,1,0,0,-1,-1,1,1,0,0,0.72936723,1
1A_005,2,1,1,1,160,1,1,1,1,0,0,-1,0,1,1,0,0.599534006,1
1A_009,3,1,1,1,1,0,0,0,NaN,NaN,NaN,NaN,NaN,NaN,NaN,NaN,0,1
1A_009,3,1,1,1,2,0,0,0,NaN,NaN,NaN,NaN,NaN,NaN,NaN,NaN,0.439773398,1
1A_009,3,1,1,1,3,0,0,0,0,NaN,NaN,NaN,1,NaN,NaN,NaN,0.570631596,1
1A_009,3,1,1,1,4,0,0,0,0,0,NaN,NaN,1,1,NaN,NaN,1.018959831,1
1A_009,3,1,1,1,5,1,0,0,0,0,0,NaN,1,1,1,NaN,0.665091623,1
1A_009,3,1,1,1,6,0,0,0,-1,0,0,0,0,1,1,1,0,1
1A_009,3,1,1,1,7,0,0,0,NaN,-1,0,0,NaN,0,1,1,0.30031398,1
1A_009,3,1,1,1,8,0,0,0,0,NaN,-1,0,1,NaN,0,1,0.362922821,1
1A_009,3,1,1,1,9,1,1,1,0,0,NaN,-1,1,1,NaN,0,1.121828772,1
1A_009,3,1,1,1,10,0,0,0,1,0,0,NaN,0,1,1,NaN,0.981825921,1
1A_009,3,1,1,1,11,1,1,1,0,1,0,0,1,0,1,1,0.957954174,1
1A_009,3,1,1,1,12,1,1,1,1,0,1,0,0,1,0,1,0.63913823,1
1A_009,3,1,1,1,13,1,1,1,1,1,0,1,0,0,1,0,1.020815838,1
1A_009,3,1,1,1,14,1,1,1,1,1,1,0,0,0,0,1,0.866813196,1
1A_009,3,1,1,1,15,1,1,1,1,1,1,1,0,0,0,0,0.841944987,1
1A_009,3,1,1,1,16,0,1,1,1,1,1,1,0,0,0,0,1.250589933,1
1A_009,3,1,1,1,17,1,0,0,0,1,1,1,-1,0,0,0,1.017690833,1
1A_009,3,1,1,1,18,0,0,0,-1,0,1,1,0,-1,0,0,0.940305708,1
1A_009,3,1,1,1,19,0,0,0,0,-1,0,1,1,0,-1,0,0.77383222,1
1A_009,3,1,1,1,20,1,1,1,0,0,-1,0,1,1,0,-1,0.491948331,1
1A_009,3,1,1,1,21,1,1,1,1,0,0,-1,0,1,1,0,0.710755312,1
1A_009,3,1,1,1,22,1,1,1,1,1,0,0,0,0,1,1,0.90935606,1
1A_009,3,1,1,1,23,1,1,1,1,1,1,0,0,0,0,1,0.764253493,1
1A_009,3,1,1,1,24,0,1,1,1,1,1,1,0,0,0,0,0.720808465,1
1A_009,3,1,1,1,25,1,1,1,0,1,1,1,-1,0,0,0,0.775247385,1
1A_009,3,1,1,1,26,0,1,1,1,0,1,1,0,-1,0,0,0.790238636,1
1A_009,3,1,1,1,27,0,1,1,0,1,0,1,-1,0,-1,0,1.14357726,1
1A_009,3,1,1,1,28,0,0,0,0,0,1,0,-1,-1,0,-1,0.688917342,1
1A_009,3,1,1,1,29,1,1,1,0,0,0,1,1,-1,-1,0,0.867668548,1
1A_009,3,1,1,1,30,1,1,1,1,0,0,0,0,1,-1,-1,0.667735207,1
1A_009,3,1,1,1,31,1,1,1,1,1,0,0,0,0,1,-1,0.614147535,1
1A_009,3,1,1,1,32,1,1,1,1,1,1,0,0,0,0,1,0.553221605,1
1A_009,3,1,1,1,33,0,0,0,1,1,1,1,0,0,0,0,1.221069583,1
1A_009,3,1,1,1,34,1,1,1,0,1,1,1,1,0,0,0,0.84346981,1
1A_009,3,1,1,1,35,1,1,1,1,0,1,1,0,1,0,0,0.792436867,1
1A_009,3,1,1,1,36,1,1,1,1,1,0,1,0,0,1,0,0.824118301,1
1A_009,3,1,1,1,37,1,1,1,1,1,1,0,0,0,0,1,0.914518471,1
1A_009,3,1,1,1,38,0,1,1,1,1,1,1,0,0,0,0,0.650486864,1
1A_009,3,1,1,1,39,1,1,1,0,1,1,1,-1,0,0,0,0.611169613,1
1A_009,3,1,1,1,40,1,1,1,1,0,1,1,0,-1,0,0,0.946039319,1
1A_009,3,1,1,1,41,1,1,1,1,1,0,1,0,0,-1,0,1.027629935,1
1A_009,3,1,1,1,42,1,1,1,1,1,1,0,0,0,0,-1,0.692030787,1
1A_009,3,1,1,1,43,1,1,1,1,1,1,1,0,0,0,0,0.728196374,1
1A_009,3,1,1,1,44,0,1,1,1,1,1,1,0,0,0,0,0.704860066,1
1A_009,3,1,1,1,45,1,1,1,0,1,1,1,-1,0,0,0,0.787876307,1
1A_009,3,1,1,1,46,1,1,1,1,0,1,1,0,-1,0,0,0.895212397,1
1A_009,3,1,1,1,47,0,1,1,1,1,0,1,0,0,-1,0,0.685192303,1
1A_009,3,1,1,1,48,1,1,1,0,1,1,0,-1,0,0,-1,0.874041502,1
1A_009,3,1,1,1,49,0,1,1,1,0,1,1,0,-1,0,0,1.130880523,1
1A_009,3,1,1,1,50,1,1,1,0,1,0,1,-1,0,-1,0,1.043867709,1
1A_009,3,1,1,1,51,0,1,1,1,0,1,0,0,-1,0,-1,0.822088524,1
1A_009,3,1,1,1,52,0,0,0,0,1,0,1,-1,0,-1,0,0.641497961,1
1A_009,3,1,1,1,53,1,1,1,0,0,1,0,1,-1,0,-1,0.709492792,1
1A_009,3,1,1,1,54,1,1,1,1,0,0,1,0,1,-1,0,0.90618208,1
1A_009,3,1,1,1,55,0,0,0,1,1,0,0,0,0,1,-1,0.818540653,1
1A_009,3,1,1,1,56,0,1,0,0,1,1,0,1,0,0,1,0.777823991,0
1A_009,3,1,1,1,57,1,1,0,0,0,1,1,-1,1,0,0,0.73602528,0
1A_009,3,1,1,1,58,0,1,0,1,0,0,1,0,-1,1,0,0.717015064,0
1A_009,3,1,1,1,59,0,1,0,0,1,0,0,-1,0,-1,1,0.768927862,0
1A_009,3,1,1,1,60,1,1,0,0,0,1,0,-1,-1,0,-1,0.642203865,0
1A_009,3,1,1,1,61,1,0,1,1,0,0,1,0,-1,-1,0,0.858314942,0
1A_009,3,1,1,1,62,1,0,1,-1,1,0,0,0,0,-1,-1,0.969736489,0
1A_009,3,1,1,1,63,1,0,1,-1,-1,1,0,0,0,0,-1,0.612565722,0
1A_009,3,1,1,1,64,0,1,0,-1,-1,-1,1,0,0,0,0,0.632213727,0
1A_009,3,1,1,1,65,1,0,1,0,-1,-1,-1,-1,0,0,0,0.556355605,0
1A_009,3,1,1,1,66,1,0,1,-1,0,-1,-1,0,-1,0,0,0.728353713,0
1A_009,3,1,1,1,67,0,0,1,-1,-1,0,-1,0,0,-1,0,1.245381467,0
1A_009,3,1,1,1,68,1,0,1,0,-1,-1,0,1,0,0,-1,0.518934472,0
1A_009,3,1,1,1,69,1,0,1,-1,0,-1,-1,0,1,0,0,0.690115843,0
1A_009,3,1,1,1,70,1,0,1,-1,-1,0,-1,0,0,1,0,0.669013716,0
1A_009,3,1,1,1,71,0,0,0,-1,-1,-1,0,0,0,0,1,1.142884538,1
1A_009,3,1,1,1,72,0,0,0,0,-1,-1,-1,1,0,0,0,0.854181773,1
1A_009,3,1,1,1,73,0,0,0,0,0,-1,-1,1,1,0,0,0.577981787,1
1A_009,3,1,1,1,74,1,1,1,0,0,0,-1,1,1,1,0,0.579479096,1
1A_009,3,1,1,1,75,1,1,1,1,0,0,0,0,1,1,1,0.605861073,1
1A_009,3,1,1,1,76,0,1,1,1,1,0,0,0,0,1,1,0.717414109,1
1A_009,3,1,1,1,77,1,1,1,0,1,1,0,-1,0,0,1,0.926115514,1
1A_009,3,1,1,1,78,1,1,1,1,0,1,1,0,-1,0,0,0.77749102,1
1A_009,3,1,1,1,79,1,1,1,1,1,0,1,0,0,-1,0,1.238715793,1
1A_009,3,1,1,1,80,1,1,1,1,1,1,0,0,0,0,-1,0.964434072,1
1A_009,3,1,1,1,81,0,1,1,1,1,1,1,0,0,0,0,0.723753839,1
1A_009,3,1,1,1,82,1,1,1,0,1,1,1,-1,0,0,0,1.355918501,1
1A_009,3,1,1,1,83,1,1,1,1,0,1,1,0,-1,0,0,0.921521567,1
1A_009,3,1,1,1,84,1,1,1,1,1,0,1,0,0,-1,0,0.771291432,1
1A_009,3,1,1,1,85,1,1,1,1,1,1,0,0,0,0,-1,0.973203826,1
1A_009,3,1,1,1,86,0,0,0,1,1,1,1,0,0,0,0,1.259894765,1
1A_009,3,1,1,1,87,1,1,1,0,1,1,1,1,0,0,0,0.590407384,1
1A_009,3,1,1,1,88,0,1,1,1,0,1,1,0,1,0,0,1.200005564,1
1A_009,3,1,1,1,89,0,1,1,0,1,0,1,-1,0,1,0,1.07495137,1
1A_009,3,1,1,1,90,1,1,1,0,0,1,0,-1,-1,0,1,0.669814878,1
1A_009,3,1,1,1,91,1,1,0,1,0,0,1,0,-1,-1,0,0.731168032,0
1A_009,3,1,1,1,92,0,1,0,1,1,0,0,0,0,-1,-1,0.704602123,0
1A_009,3,1,1,1,93,1,1,0,0,1,1,0,-1,0,0,-1,0.634170242,0
1A_009,3,1,1,1,94,1,1,0,1,0,1,1,0,-1,0,0,1.297550771,0
1A_009,3,1,1,1,95,0,1,0,1,1,0,1,0,0,-1,0,0.711156906,0
1A_009,3,1,1,1,96,0,1,0,0,1,1,0,-1,0,0,-1,0.601521833,0
1A_009,3,1,1,1,97,0,0,0,0,0,1,1,-1,-1,0,0,0,0
1A_009,3,1,1,1,98,0,1,0,NaN,0,0,1,NaN,-1,-1,0,0.394260786,0
1A_009,3,1,1,1,99,1,0,1,0,NaN,0,0,-1,NaN,-1,-1,0.666368673,0
1A_009,3,1,1,1,100,1,0,1,-1,0,NaN,0,0,-1,NaN,-1,0.701632672,0
1A_009,3,1,1,1,101,0,0,1,-1,-1,0,NaN,0,0,-1,NaN,0.528362283,0
1A_009,3,1,1,1,102,1,0,1,0,-1,-1,0,1,0,0,-1,0.61626371,0
1A_009,3,1,1,1,103,1,0,1,-1,0,-1,-1,0,1,0,0,0.859346736,0
1A_009,3,1,1,1,104,1,0,1,-1,-1,0,-1,0,0,1,0,0.650705032,0
1A_009,3,1,1,1,105,1,0,1,-1,-1,-1,0,0,0,0,1,0.791283472,0
1A_009,3,1,1,1,106,0,0,0,-1,-1,-1,-1,0,0,0,0,0.759966537,1
1A_009,3,1,1,1,107,1,0,0,0,-1,-1,-1,1,0,0,0,0.84056358,1
1A_009,3,1,1,1,108,0,0,0,-1,0,-1,-1,0,1,0,0,0.757834497,1
1A_009,3,1,1,1,109,0,0,0,0,-1,0,-1,1,0,1,0,0.759418242,1
1A_009,3,1,1,1,110,1,0,0,0,0,-1,0,1,1,0,1,0.786109049,1
1A_009,3,1,1,1,111,1,0,0,-1,0,0,-1,0,1,1,0,0.604561854,1
1A_009,3,1,1,1,112,1,0,0,-1,-1,0,0,0,0,1,1,1.001525634,1
1A_009,3,1,1,1,113,1,0,0,-1,-1,-1,0,0,0,0,1,1.025319901,1
1A_009,3,1,1,1,114,0,0,0,-1,-1,-1,-1,0,0,0,0,1.057238278,1
1A_009,3,1,1,1,115,1,1,1,0,-1,-1,-1,1,0,0,0,0.679909428,1
1A_009,3,1,1,1,116,1,1,1,1,0,-1,-1,0,1,0,0,0.674181422,1
1A_009,3,1,1,1,117,1,1,1,1,1,0,-1,0,0,1,0,0.793490046,1
1A_009,3,1,1,1,118,0,0,0,1,1,1,0,0,0,0,1,0,1
1A_009,3,1,1,1,119,1,1,1,NaN,1,1,1,NaN,0,0,0,0.680818116,1
1A_009,3,1,1,1,120,1,1,1,1,NaN,1,1,0,NaN,0,0,1.030159064,1
1A_009,3,1,1,1,121,1,1,1,1,1,NaN,1,0,0,NaN,0,0.807642262,1
1A_009,3,1,1,1,122,1,1,1,1,1,1,NaN,0,0,0,NaN,0.643274765,1
1A_009,3,1,1,1,123,0,1,1,1,1,1,1,0,0,0,0,0.758346511,1
1A_009,3,1,1,1,124,1,0,0,0,1,1,1,-1,0,0,0,1.002418006,1
1A_009,3,1,1,1,125,0,0,0,-1,0,1,1,0,-1,0,0,0.856206395,1
1A_009,3,1,1,1,126,0,0,1,0,-1,0,1,1,0,-1,0,0.766677579,0
1A_009,3,1,1,1,127,0,0,1,0,0,-1,0,1,1,0,-1,0.73974667,0
1A_009,3,1,1,1,128,0,1,0,0,0,0,-1,1,1,1,0,0.761940399,0
1A_009,3,1,1,1,129,0,1,0,0,0,0,0,-1,1,1,1,1.418733353,0
1A_009,3,1,1,1,130,0,1,0,0,0,0,0,-1,-1,1,1,0.594913058,0
1A_009,3,1,1,1,131,1,0,1,0,0,0,0,-1,-1,-1,1,1.098433336,0
1A_009,3,1,1,1,132,0,0,1,-1,0,0,0,0,-1,-1,-1,0.962373482,0
1A_009,3,1,1,1,133,1,0,1,0,-1,0,0,1,0,-1,-1,0.667935203,0
1A_009,3,1,1,1,134,1,0,1,-1,0,-1,0,0,1,0,-1,1.282679872,0
1A_009,3,1,1,1,135,1,0,1,-1,-1,0,-1,0,0,1,0,1.130658859,0
1A_009,3,1,1,1,136,1,0,1,-1,-1,-1,0,0,0,0,1,1.003059411,0
1A_009,3,1,1,1,137,1,0,1,-1,-1,-1,-1,0,0,0,0,1.308069705,0
1A_009,3,1,1,1,138,1,0,1,-1,-1,-1,-1,0,0,0,0,0.552013789,0
1A_009,3,1,1,1,139,1,0,1,-1,-1,-1,-1,0,0,0,0,0.875295213,0
1A_009,3,1,1,1,140,1,1,0,-1,-1,-1,-1,0,0,0,0,1.105363306,0
1A_009,3,1,1,1,141,1,1,0,1,-1,-1,-1,0,0,0,0,0.55221891,0
1A_009,3,1,1,1,142,0,0,1,1,1,-1,-1,0,0,0,0,0.594578358,0
1A_009,3,1,1,1,143,0,1,0,0,1,1,-1,1,0,0,0,0.891082903,0
1A_009,3,1,1,1,144,0,1,0,0,0,1,1,-1,1,0,0,0.661762529,0
1A_009,3,1,1,1,145,0,1,0,0,0,0,1,-1,-1,1,0,0.664722391,0
1A_009,3,1,1,1,146,0,1,0,0,0,0,0,-1,-1,-1,1,1.050473334,0
1A_009,3,1,1,1,147,1,0,1,0,0,0,0,-1,-1,-1,-1,0.917042846,0
1A_009,3,1,1,1,148,1,0,1,-1,0,0,0,0,-1,-1,-1,1.475533152,0
1A_009,3,1,1,1,149,1,0,1,-1,-1,0,0,0,0,-1,-1,1.05748358,0
1A_009,3,1,1,1,150,1,0,1,-1,-1,-1,0,0,0,0,-1,0.822439581,0
1A_009,3,1,1,1,151,0,0,1,-1,-1,-1,-1,0,0,0,0,0.725577272,0
1A_009,3,1,1,1,152,1,0,1,0,-1,-1,-1,1,0,0,0,0.876265607,0
1A_009,3,1,1,1,153,1,0,1,-1,0,-1,-1,0,1,0,0,0.908626101,0
1A_009,3,1,1,1,154,1,0,1,-1,-1,0,-1,0,0,1,0,1.22221244,0
1A_009,3,1,1,1,155,1,0,1,-1,-1,-1,0,0,0,0,1,1.064220684,0
1A_009,3,1,1,1,156,1,0,1,-1,-1,-1,-1,0,0,0,0,1.115459351,0
1A_009,3,1,1,1,157,0,0,0,-1,-1,-1,-1,0,0,0,0,0,0
1A_009,3,1,1,1,158,0,0,1,NaN,-1,-1,-1,NaN,0,0,0,0.660440902,0
1A_009,3,1,1,1,159,1,0,1,0,NaN,-1,-1,1,NaN,0,0,0.792388181,0
1A_009,3,1,1,1,160,1,0,1,-1,0,NaN,-1,0,1,NaN,0,0.664276346,0
1A_013,4,1,1,1,1,0,0,0,NaN,NaN,NaN,NaN,NaN,NaN,NaN,NaN,0.671474136,1
1A_013,4,1,1,1,2,0,0,0,0,NaN,NaN,NaN,1,NaN,NaN,NaN,0.506513156,1
1A_013,4,1,1,1,3,1,0,0,0,0,NaN,NaN,1,1,NaN,NaN,0.63928513,1
1A_013,4,1,1,1,4,0,0,0,-1,0,0,NaN,0,1,1,NaN,0.841111174,1
1A_013,4,1,1,1,5,1,1,1,0,-1,0,0,1,0,1,1,0.747288837,1
1A_013,4,1,1,1,6,1,1,1,1,0,-1,0,0,1,0,1,0.651604469,1
1A_013,4,1,1,1,7,1,1,1,1,1,0,-1,0,0,1,0,0.527614983,1
1A_013,4,1,1,1,8,1,1,1,1,1,1,0,0,0,0,1,0.624834229,1
1A_013,4,1,1,1,9,1,1,1,1,1,1,1,0,0,0,0,0.690249062,1
1A_013,4,1,1,1,10,1,1,1,1,1,1,1,0,0,0,0,0.63710858,1
1A_013,4,1,1,1,11,1,1,1,1,1,1,1,0,0,0,0,0.703578512,1
1A_013,4,1,1,1,12,1,1,1,1,1,1,1,0,0,0,0,0.688198605,1
1A_013,4,1,1,1,13,1,1,1,1,1,1,1,0,0,0,0,0.557629416,1
1A_013,4,1,1,1,14,1,1,1,1,1,1,1,0,0,0,0,0.626830207,1
1A_013,4,1,1,1,15,1,1,1,1,1,1,1,0,0,0,0,0.680692781,1
1A_013,4,1,1,1,16,1,1,1,1,1,1,1,0,0,0,0,0.607858319,1
1A_013,4,1,1,1,17,1,1,1,1,1,1,1,0,0,0,0,0.65582685,1
1A_013,4,1,1,1,18,0,1,1,1,1,1,1,0,0,0,0,0.55907001,1
1A_013,4,1,1,1,19,1,1,1,0,1,1,1,-1,0,0,0,0.982933105,1
1A_013,4,1,1,1,20,1,1,1,1,0,1,1,0,-1,0,0,0.593094374,1
1A_013,4,1,1,1,21,1,1,1,1,1,0,1,0,0,-1,0,0.587505044,1
1A_013,4,1,1,1,22,1,1,1,1,1,1,0,0,0,0,-1,0.639721272,1
1A_013,4,1,1,1,23,1,1,1,1,1,1,1,0,0,0,0,0.648328659,1
1A_013,4,1,1,1,24,0,1,1,1,1,1,1,0,0,0,0,0.650040497,1
1A_013,4,1,1,1,25,1,1,1,0,1,1,1,-1,0,0,0,0.637024742,1
1A_013,4,1,1,1,26,1,1,1,1,0,1,1,0,-1,0,0,0.619632622,1
1A_013,4,1,1,1,27,1,1,1,1,1,0,1,0,0,-1,0,0.588354315,1
1A_013,4,1,1,1,28,1,1,1,1,1,1,0,0,0,0,-1,0.604976564,1
1A_013,4,1,1,1,29,1,1,1,1,1,1,1,0,0,0,0,0.598613919,1
1A_013,4,1,1,1,30,1,1,1,1,1,1,1,0,0,0,0,0.569632443,1
1A_013,4,1,1,1,31,1,1,1,1,1,1,1,0,0,0,0,0.468444039,1
1A_013,4,1,1,1,32,1,1,1,1,1,1,1,0,0,0,0,0.548167686,1
1A_013,4,1,1,1,33,1,1,1,1,1,1,1,0,0,0,0,0.474214377,1
1A_013,4,1,1,1,34,0,1,1,1,1,1,1,0,0,0,0,0.631982352,1
1A_013,4,1,1,1,35,1,1,1,0,1,1,1,-1,0,0,0,0.477448136,1
1A_013,4,1,1,1,36,1,1,1,1,0,1,1,0,-1,0,0,0.498366652,1
1A_013,4,1,1,1,37,0,1,1,1,1,0,1,0,0,-1,0,0.612549131,1
1A_013,4,1,1,1,38,1,1,1,0,1,1,0,-1,0,0,-1,0.655799721,1
1A_013,4,1,1,1,39,1,1,1,1,0,1,1,0,-1,0,0,0.510396046,1
1A_013,4,1,1,1,40,1,1,1,1,1,0,1,0,0,-1,0,0.588090223,1
1A_013,4,1,1,1,41,1,1,1,1,1,1,0,0,0,0,-1,0.516336806,1
1A_013,4,1,1,1,42,1,1,1,1,1,1,1,0,0,0,0,0.485583466,1
1A_013,4,1,1,1,43,1,1,1,1,1,1,1,0,0,0,0,0.698892141,1
1A_013,4,1,1,1,44,1,1,1,1,1,1,1,0,0,0,0,0.650757953,1
1A_013,4,1,1,1,45,1,1,1,1,1,1,1,0,0,0,0,0.673870293,1
1A_013,4,1,1,1,46,1,1,1,1,1,1,1,0,0,0,0,0.582958686,1
1A_013,4,1,1,1,47,0,1,1,1,1,1,1,0,0,0,0,0.736746227,1
1A_013,4,1,1,1,48,1,1,1,0,1,1,1,-1,0,0,0,0.645595687,1
1A_013,4,1,1,1,49,1,1,1,1,0,1,1,0,-1,0,0,0.629688004,1
1A_013,4,1,1,1,50,1,1,1,1,1,0,1,0,0,-1,0,0.58472512,1
1A_013,4,1,1,1,51,1,1,1,1,1,1,0,0,0,0,-1,0.637861116,1
1A_013,4,1,1,1,52,1,1,1,1,1,1,1,0,0,0,0,0.571916276,1
1A_013,4,1,1,1,53,1,1,1,1,1,1,1,0,0,0,0,0.673405724,1
1A_013,4,1,1,1,54,0,1,1,1,1,1,1,0,0,0,0,0.58491209,1
1A_013,4,1,1,1,55,1,1,1,0,1,1,1,-1,0,0,0,0.629284377,1
1A_013,4,1,1,1,56,0,1,0,1,0,1,1,0,-1,0,0,0.599010531,0
1A_013,4,1,1,1,57,0,1,0,0,1,0,1,-1,0,-1,0,0.846425945,0
1A_013,4,1,1,1,58,0,1,0,0,0,1,0,-1,-1,0,-1,0.621194493,0
1A_013,4,1,1,1,59,1,0,1,0,0,0,1,-1,-1,-1,0,0.797240815,0
1A_013,4,1,1,1,60,1,0,1,-1,0,0,0,0,-1,-1,-1,0.557657472,0
1A_013,4,1,1,1,61,1,0,1,-1,-1,0,0,0,0,-1,-1,0.560582348,0
1A_013,4,1,1,1,62,1,0,1,-1,-1,-1,0,0,0,0,-1,0.718118003,0
1A_013,4,1,1,1,63,1,0,1,-1,-1,-1,-1,0,0,0,0,0.65289664,0
1A_013,4,1,1,1,64,1,0,1,-1,-1,-1,-1,0,0,0,0,0.643751107,0
1A_013,4,1,1,1,65,1,0,1,-1,-1,-1,-1,0,0,0,0,0.714493339,0
1A_013,4,1,1,1,66,1,0,1,-1,-1,-1,-1,0,0,0,0,0.604542442,0
1A_013,4,1,1,1,67,1,0,1,-1,-1,-1,-1,0,0,0,0,0.65327851,0
1A_013,4,1,1,1,68,1,0,1,-1,-1,-1,-1,0,0,0,0,0.613165038,0
1A_013,4,1,1,1,69,1,0,1,-1,-1,-1,-1,0,0,0,0,0.537465346,0
1A_013,4,1,1,1,70,0,0,1,-1,-1,-1,-1,0,0,0,0,0.70568663,0
1A_013,4,1,1,1,71,0,0,0,0,-1,-1,-1,1,0,0,0,0.575326434,1
1A_013,4,1,1,1,72,0,0,0,0,0,-1,-1,1,1,0,0,0.726997142,1
1A_013,4,1,1,1,73,0,1,1,0,0,0,-1,1,1,1,0,0.526919256,1
1A_013,4,1,1,1,74,0,1,1,0,0,0,0,-1,1,1,1,0.536660708,1
1A_013,4,1,1,1,75,1,1,1,0,0,0,0,-1,-1,1,1,0.728435649,1
1A_013,4,1,1,1,76,1,1,1,1,0,0,0,0,-1,-1,1,0.459198989,1
1A_013,4,1,1,1,77,1,1,1,1,1,0,0,0,0,-1,-1,0.507979351,1
1A_013,4,1,1,1,78,0,0,0,1,1,1,0,0,0,0,-1,0.666500422,1
1A_013,4,1,1,1,79,1,0,0,0,1,1,1,1,0,0,0,0.528663255,1
1A_013,4,1,1,1,80,1,1,1,-1,0,1,1,0,1,0,0,0.478585394,1
1A_013,4,1,1,1,81,0,0,0,1,-1,0,1,0,0,1,0,0.727750511,1
1A_013,4,1,1,1,82,0,0,0,0,1,-1,0,1,0,0,1,0.75378552,1
1A_013,4,1,1,1,83,0,0,0,0,0,1,-1,1,1,0,0,0.666164929,1
1A_013,4,1,1,1,84,1,1,1,0,0,0,1,1,1,1,0,0.702257142,1
1A_013,4,1,1,1,85,1,1,1,1,0,0,0,0,1,1,1,0.670721514,1
1A_013,4,1,1,1,86,1,1,1,1,1,0,0,0,0,1,1,0.689971884,1
1A_013,4,1,1,1,87,1,1,1,1,1,1,0,0,0,0,1,0.716897454,1
1A_013,4,1,1,1,88,1,1,1,1,1,1,1,0,0,0,0,0.766276436,1
1A_013,4,1,1,1,89,1,1,1,1,1,1,1,0,0,0,0,0.632658199,1
1A_013,4,1,1,1,90,1,1,1,1,1,1,1,0,0,0,0,1.130585283,1
1A_013,4,1,1,1,91,1,1,0,1,1,1,1,0,0,0,0,0.691080536,0
1A_013,4,1,1,1,92,1,1,0,1,1,1,1,0,0,0,0,0.562333463,0
1A_013,4,1,1,1,93,0,1,0,1,1,1,1,0,0,0,0,0.745002718,0
1A_013,4,1,1,1,94,0,1,0,0,1,1,1,-1,0,0,0,0.79491516,0
1A_013,4,1,1,1,95,1,1,0,0,0,1,1,-1,-1,0,0,0.669592627,0
1A_013,4,1,1,1,96,0,1,0,1,0,0,1,0,-1,-1,0,0.669775282,0
1A_013,4,1,1,1,97,1,0,1,0,1,0,0,-1,0,-1,-1,0.967834992,0
1A_013,4,1,1,1,98,1,0,1,-1,0,1,0,0,-1,0,-1,0.693954262,0
1A_013,4,1,1,1,99,1,0,1,-1,-1,0,1,0,0,-1,0,0.525129868,0
1A_013,4,1,1,1,100,1,0,1,-1,-1,-1,0,0,0,0,-1,0.530057153,0
1A_013,4,1,1,1,101,1,0,1,-1,-1,-1,-1,0,0,0,0,0.776917837,0
1A_013,4,1,1,1,102,1,0,1,-1,-1,-1,-1,0,0,0,0,0.713248925,0
1A_013,4,1,1,1,103,1,0,1,-1,-1,-1,-1,0,0,0,0,0.614779556,0
1A_013,4,1,1,1,104,1,0,1,-1,-1,-1,-1,0,0,0,0,0.613570482,0
1A_013,4,1,1,1,105,1,0,1,-1,-1,-1,-1,0,0,0,0,0.936539585,0
1A_013,4,1,1,1,106,0,0,0,-1,-1,-1,-1,0,0,0,0,0.667226313,1
1A_013,4,1,1,1,107,0,0,0,0,-1,-1,-1,1,0,0,0,0.590648558,1
1A_013,4,1,1,1,108,0,0,0,0,0,-1,-1,1,1,0,0,0.420247904,1
1A_013,4,1,1,1,109,1,0,0,0,0,0,-1,1,1,1,0,0.477933965,1
1A_013,4,1,1,1,110,1,1,1,-1,0,0,0,0,1,1,1,0.53800643,1
1A_013,4,1,1,1,111,1,1,1,1,-1,0,0,0,0,1,1,0.557522747,1
1A_013,4,1,1,1,112,1,1,1,1,1,-1,0,0,0,0,1,0.627284456,1
1A_013,4,1,1,1,113,1,1,1,1,1,1,-1,0,0,0,0,0.60414334,1
1A_013,4,1,1,1,114,1,1,1,1,1,1,1,0,0,0,0,0.522680292,1
1A_013,4,1,1,1,115,1,1,1,1,1,1,1,0,0,0,0,0.746071952,1
1A_013,4,1,1,1,116,1,1,1,1,1,1,1,0,0,0,0,0.622494078,1
1A_013,4,1,1,1,117,1,1,1,1,1,1,1,0,0,0,0,0.622256735,1
1A_013,4,1,1,1,118,0,1,1,1,1,1,1,0,0,0,0,0.648081592,1
1A_013,4,1,1,1,119,1,1,1,0,1,1,1,-1,0,0,0,0.625561089,1
1A_013,4,1,1,1,120,1,1,1,1,0,1,1,0,-1,0,0,0.754660152,1
1A_013,4,1,1,1,121,1,1,1,1,1,0,1,0,0,-1,0,0.5845492,1
1A_013,4,1,1,1,122,0,1,1,1,1,1,0,0,0,0,-1,0.638802397,1
1A_013,4,1,1,1,123,1,1,1,0,1,1,1,-1,0,0,0,0.475907788,1
1A_013,4,1,1,1,124,1,1,1,1,0,1,1,0,-1,0,0,0.945151894,1
1A_013,4,1,1,1,125,1,1,1,1,1,0,1,0,0,-1,0,0.56050543,1
1A_013,4,1,1,1,126,0,1,0,1,1,1,0,0,0,0,-1,0.55927124,0
1A_013,4,1,1,1,127,0,1,0,0,1,1,1,-1,0,0,0,0.647716045,0
1A_013,4,1,1,1,128,1,0,1,0,0,1,1,-1,-1,0,0,0.650810464,0
1A_013,4,1,1,1,129,1,0,1,-1,0,0,1,0,-1,-1,0,0.542721832,0
1A_013,4,1,1,1,130,0,0,1,-1,-1,0,0,0,0,-1,-1,0.667553716,0
1A_013,4,1,1,1,131,1,0,1,0,-1,-1,0,1,0,0,-1,0.737244326,0
1A_013,4,1,1,1,132,1,0,1,-1,0,-1,-1,0,1,0,0,0.667985037,0
1A_013,4,1,1,1,133,1,0,1,-1,-1,0,-1,0,0,1,0,0.603821217,0
1A_013,4,1,1,1,134,1,0,1,-1,-1,-1,0,0,0,0,1,0.592617076,0
1A_013,4,1,1,1,135,1,0,1,-1,-1,-1,-1,0,0,0,0,0.584644731,0
1A_013,4,1,1,1,136,0,1,0,-1,-1,-1,-1,0,0,0,0,0.894019365,0
1A_013,4,1,1,1,137,0,0,1,0,-1,-1,-1,-1,0,0,0,0.973079697,0
1A_013,4,1,1,1,138,1,0,1,0,0,-1,-1,1,-1,0,0,1.153249555,0
1A_013,4,1,1,1,139,1,0,1,-1,0,0,-1,0,1,-1,0,0.620733172,0
1A_013,4,1,1,1,140,1,0,1,-1,-1,0,0,0,0,1,-1,0.759920635,0
1A_013,4,1,1,1,141,1,0,1,-1,-1,-1,0,0,0,0,1,0.699947624,0
1A_013,4,1,1,1,142,1,0,1,-1,-1,-1,-1,0,0,0,0,0.575406613,0
1A_013,4,1,1,1,143,1,0,1,-1,-1,-1,-1,0,0,0,0,0.992985109,0
1A_013,4,1,1,1,144,0,0,1,-1,-1,-1,-1,0,0,0,0,0.503343113,0
1A_013,4,1,1,1,145,1,0,1,0,-1,-1,-1,1,0,0,0,0.835490752,0
1A_013,4,1,1,1,146,1,0,1,-1,0,-1,-1,0,1,0,0,0.988746355,0
1A_013,4,1,1,1,147,1,0,1,-1,-1,0,-1,0,0,1,0,1.477631657,0
1A_013,4,1,1,1,148,1,0,1,-1,-1,-1,0,0,0,0,1,0.716120115,0
1A_013,4,1,1,1,149,1,0,1,-1,-1,-1,-1,0,0,0,0,0.736196728,0
1A_013,4,1,1,1,150,1,0,1,-1,-1,-1,-1,0,0,0,0,0.673044618,0
1A_013,4,1,1,1,151,1,0,1,-1,-1,-1,-1,0,0,0,0,0.780289255,0
1A_013,4,1,1,1,152,1,0,1,-1,-1,-1,-1,0,0,0,0,0.833520254,0
1A_013,4,1,1,1,153,1,0,1,-1,-1,-1,-1,0,0,0,0,0.617184543,0
1A_013,4,1,1,1,154,1,0,1,-1,-1,-1,-1,0,0,0,0,0.606823728,0
1A_013,4,1,1,1,155,1,0,1,-1,-1,-1,-1,0,0,0,0,0.665590822,0
1A_013,4,1,1,1,156,1,0,1,-1,-1,-1,-1,0,0,0,0,0.740063434,0
1A_013,4,1,1,1,157,0,0,1,-1,-1,-1,-1,0,0,0,0,0.640600516,0
1A_013,4,1,1,1,158,1,0,1,0,-1,-1,-1,1,0,0,0,0.607197577,0
1A_013,4,1,1,1,159,1,0,1,-1,0,-1,-1,0,1,0,0,0.641889307,0
1A_013,4,1,1,1,160,1,0,1,-1,-1,0,-1,0,0,1,0,0.581693543,0
1A_014,5,1,1,1,1,1,0,1,NaN,NaN,NaN,NaN,NaN,NaN,NaN,NaN,1.253623129,0
1A_014,5,1,1,1,2,1,0,1,-1,NaN,NaN,NaN,0,NaN,NaN,NaN,0.923234262,0
1A_014,5,1,1,1,3,1,0,1,-1,-1,NaN,NaN,0,0,NaN,NaN,0.777108975,0
1A_014,5,1,1,1,4,1,0,1,-1,-1,-1,NaN,0,0,0,NaN,1.264297783,0
1A_014,5,1,1,1,5,1,1,0,-1,-1,-1,-1,0,0,0,0,0.547968812,0
1A_014,5,1,1,1,6,0,1,0,1,-1,-1,-1,0,0,0,0,1.074525451,0
1A_014,5,1,1,1,7,0,1,0,0,1,-1,-1,-1,0,0,0,1.153100877,0
1A_014,5,1,1,1,8,0,0,0,0,0,1,-1,-1,-1,0,0,0,0
1A_014,5,1,1,1,9,1,0,1,NaN,0,0,1,NaN,-1,-1,0,0.707653093,0
1A_014,5,1,1,1,10,0,1,0,-1,NaN,0,0,0,NaN,-1,-1,0.697738423,0
1A_014,5,1,1,1,11,1,0,1,0,-1,NaN,0,-1,0,NaN,-1,0.835199542,0
1A_014,5,1,1,1,12,0,1,0,-1,0,-1,NaN,0,-1,0,NaN,0.68450564,0
1A_014,5,1,1,1,13,1,0,1,0,-1,0,-1,-1,0,-1,0,0.689743232,0
1A_014,5,1,1,1,14,1,0,1,-1,0,-1,0,0,-1,0,-1,1.222243365,0
1A_014,5,1,1,1,15,1,0,1,-1,-1,0,-1,0,0,-1,0,0.673914854,0
1A_014,5,1,1,1,16,0,0,1,-1,-1,-1,0,0,0,0,-1,0.657164326,0
1A_014,5,1,1,1,17,0,1,0,0,-1,-1,-1,1,0,0,0,0.712419048,0
1A_014,5,1,1,1,18,0,1,0,0,0,-1,-1,-1,1,0,0,1.100663649,0
1A_014,5,1,1,1,19,0,0,1,0,0,0,-1,-1,-1,1,0,0.977731771,0
1A_014,5,1,1,1,20,1,1,0,0,0,0,0,1,-1,-1,1,0.935692946,0
1A_014,5,1,1,1,21,1,0,1,1,0,0,0,0,1,-1,-1,1.322507881,0
1A_014,5,1,1,1,22,0,1,0,-1,1,0,0,0,0,1,-1,0.564231068,0
1A_014,5,1,1,1,23,0,1,0,0,-1,1,0,-1,0,0,1,0.664055255,0
1A_014,5,1,1,1,24,1,0,1,0,0,-1,1,-1,-1,0,0,0.676855433,0
1A_014,5,1,1,1,25,1,1,0,-1,0,0,-1,0,-1,-1,0,0.801984599,0
1A_014,5,1,1,1,26,1,0,1,1,-1,0,0,0,0,-1,-1,0.536934429,0
1A_014,5,1,1,1,27,1,0,1,-1,1,-1,0,0,0,0,-1,0.687688381,0
1A_014,5,1,1,1,28,0,0,1,-1,-1,1,-1,0,0,0,0,0.57919231,0
1A_014,5,1,1,1,29,0,1,0,0,-1,-1,1,1,0,0,0,0.702967249,0
1A_014,5,1,1,1,30,1,0,1,0,0,-1,-1,-1,1,0,0,0.499729579,0
1A_014,5,1,1,1,31,1,1,0,-1,0,0,-1,0,-1,1,0,0.530858462,0
1A_014,5,1,1,1,32,1,0,1,1,-1,0,0,0,0,-1,1,0.626248774,0
1A_014,5,1,1,1,33,0,1,0,-1,1,-1,0,0,0,0,-1,1.109289224,0
1A_014,5,1,1,1,34,1,0,1,0,-1,1,-1,-1,0,0,0,0.542633291,0
1A_014,5,1,1,1,35,1,0,1,-1,0,-1,1,0,-1,0,0,0.76247642,0
1A_014,5,1,1,1,36,1,0,1,-1,-1,0,-1,0,0,-1,0,0.489623737,0
1A_014,5,1,1,1,37,0,1,0,-1,-1,-1,0,0,0,0,-1,0.582284549,0
1A_014,5,1,1,1,38,0,1,0,0,-1,-1,-1,-1,0,0,0,0.464331966,0
1A_014,5,1,1,1,39,1,0,1,0,0,-1,-1,-1,-1,0,0,0.869460291,0
1A_014,5,1,1,1,40,1,0,1,-1,0,0,-1,0,-1,-1,0,0.504139493,0
1A_014,5,1,1,1,41,1,0,1,-1,-1,0,0,0,0,-1,-1,0.417793622,0
1A_014,5,1,1,1,42,0,1,0,-1,-1,-1,0,0,0,0,-1,0.573471012,0
1A_014,5,1,1,1,43,0,1,0,0,-1,-1,-1,-1,0,0,0,0.95004129,0
1A_014,5,1,1,1,44,0,0,1,0,0,-1,-1,-1,-1,0,0,0.486204334,0
1A_014,5,1,1,1,45,1,1,0,0,0,0,-1,1,-1,-1,0,0.729905083,0
1A_014,5,1,1,1,46,1,0,1,1,0,0,0,0,1,-1,-1,0.647179138,0
1A_014,5,1,1,1,47,0,1,0,-1,1,0,0,0,0,1,-1,0.592193941,0
1A_014,5,1,1,1,48,0,1,0,0,-1,1,0,-1,0,0,1,0.64645228,0
1A_014,5,1,1,1,49,1,0,1,0,0,-1,1,-1,-1,0,0,0.423760629,0
1A_014,5,1,1,1,50,1,0,1,-1,0,0,-1,0,-1,-1,0,0.503199947,0
1A_014,5,1,1,1,51,1,0,1,-1,-1,0,0,0,0,-1,-1,0.41977721,0
1A_014,5,1,1,1,52,1,0,1,-1,-1,-1,0,0,0,0,-1,0.500710346,0
1A_014,5,1,1,1,53,0,0,1,-1,-1,-1,-1,0,0,0,0,0.522529586,0
1A_014,5,1,1,1,54,0,1,0,0,-1,-1,-1,1,0,0,0,0.533067617,0
1A_014,5,1,1,1,55,1,0,1,0,0,-1,-1,-1,1,0,0,0.477125706,0
1A_014,5,1,1,1,56,1,0,0,-1,0,0,-1,0,-1,1,0,0.479641387,1
1A_014,5,1,1,1,57,1,1,1,-1,-1,0,0,0,0,-1,1,0.629624683,1
1A_014,5,1,1,1,58,1,1,1,1,-1,-1,0,0,0,0,-1,0.675803063,1
1A_014,5,1,1,1,59,0,0,0,1,1,-1,-1,0,0,0,0,0.612372049,1
1A_014,5,1,1,1,60,1,1,1,0,1,1,-1,1,0,0,0,0.599501177,1
1A_014,5,1,1,1,61,0,0,0,1,0,1,1,0,1,0,0,0.437685076,1
1A_014,5,1,1,1,62,1,1,1,0,1,0,1,1,0,1,0,0.44391868,1
1A_014,5,1,1,1,63,0,0,0,1,0,1,0,0,1,0,1,0.560402743,1
1A_014,5,1,1,1,64,0,0,0,0,1,0,1,1,0,1,0,0.599607887,1
1A_014,5,1,1,1,65,1,1,1,0,0,1,0,1,1,0,1,0.499946504,1
1A_014,5,1,1,1,66,1,1,1,1,0,0,1,0,1,1,0,0.474036906,1
1A_014,5,1,1,1,67,1,1,1,1,1,0,0,0,0,1,1,0.434029734,1
1A_014,5,1,1,1,68,1,1,1,1,1,1,0,0,0,0,1,0.541230937,1
1A_014,5,1,1,1,69,1,1,1,1,1,1,1,0,0,0,0,0.465983995,1
1A_014,5,1,1,1,70,1,1,1,1,1,1,1,0,0,0,0,0.459017335,1
1A_014,5,1,1,1,71,0,1,0,1,1,1,1,0,0,0,0,0.35230559,0
1A_014,5,1,1,1,72,0,1,0,0,1,1,1,-1,0,0,0,0.421545103,0
1A_014,5,1,1,1,73,1,0,1,0,0,1,1,-1,-1,0,0,0.447581932,0
1A_014,5,1,1,1,74,1,0,1,-1,0,0,1,0,-1,-1,0,0.304601143,0
1A_014,5,1,1,1,75,0,0,1,-1,-1,0,0,0,0,-1,-1,0.472252106,0
1A_014,5,1,1,1,76,0,1,0,0,-1,-1,0,1,0,0,-1,0.579739171,0
1A_014,5,1,1,1,77,1,0,1,0,0,-1,-1,-1,1,0,0,0.46608783,0
1A_014,5,1,1,1,78,0,0,1,-1,0,0,-1,0,-1,1,0,0.405088693,0
1A_014,5,1,1,1,79,1,0,1,0,-1,0,0,1,0,-1,1,1.305441216,0
1A_014,5,1,1,1,80,0,1,0,-1,0,-1,0,0,1,0,-1,0.446072176,0
1A_014,5,1,1,1,81,1,0,1,0,-1,0,-1,-1,0,1,0,0.485165154,0
1A_014,5,1,1,1,82,0,1,0,-1,0,-1,0,0,-1,0,1,0.356898922,0
1A_014,5,1,1,1,83,1,0,1,0,-1,0,-1,-1,0,-1,0,0.715800954,0
1A_014,5,1,1,1,84,1,0,1,-1,0,-1,0,0,-1,0,-1,0.50227001,0
1A_014,5,1,1,1,85,0,1,0,-1,-1,0,-1,0,0,-1,0,0.401461675,0
1A_014,5,1,1,1,86,1,0,1,0,-1,-1,0,-1,0,0,-1,0.762614773,0
1A_014,5,1,1,1,87,1,1,0,-1,0,-1,-1,0,-1,0,0,0.56557636,0
1A_014,5,1,1,1,88,0,1,0,1,-1,0,-1,0,0,-1,0,0.422655017,0
1A_014,5,1,1,1,89,0,1,0,0,1,-1,0,-1,0,0,-1,0.691055385,0
1A_014,5,1,1,1,90,1,0,1,0,0,1,-1,-1,-1,0,0,0.67529112,0
1A_014,5,1,1,1,91,1,1,1,-1,0,0,1,0,-1,-1,0,0.807157309,1
1A_014,5,1,1,1,92,0,0,0,1,-1,0,0,0,0,-1,-1,0.434587918,1
1A_014,5,1,1,1,93,0,0,0,0,1,-1,0,1,0,0,-1,0.678038923,1
1A_014,5,1,1,1,94,0,1,1,0,0,1,-1,1,1,0,0,0.507065263,1
1A_014,5,1,1,1,95,0,0,0,0,0,0,1,-1,1,1,0,0.636691486,1
1A_014,5,1,1,1,96,0,0,0,0,0,0,0,1,-1,1,1,0.538333704,1
1A_014,5,1,1,1,97,1,0,0,0,0,0,0,1,1,-1,1,0.65184479,1
1A_014,5,1,1,1,98,0,0,0,-1,0,0,0,0,1,1,-1,0.452251478,1
1A_014,5,1,1,1,99,0,0,0,0,-1,0,0,1,0,1,1,0.488635294,1
1A_014,5,1,1,1,100,0,1,1,0,0,-1,0,1,1,0,1,0.690874849,1
1A_014,5,1,1,1,101,0,0,0,0,0,0,-1,-1,1,1,0,1.058632186,1
1A_014,5,1,1,1,102,1,1,1,0,0,0,0,1,-1,1,1,0.435256458,1
1A_014,5,1,1,1,103,1,1,1,1,0,0,0,0,1,-1,1,0.529260051,1
1A_014,5,1,1,1,104,1,1,1,1,1,0,0,0,0,1,-1,0.632176945,1
1A_014,5,1,1,1,105,1,1,1,1,1,1,0,0,0,0,1,0.364984906,1
1A_014,5,1,1,1,106,1,0,1,1,1,1,1,0,0,0,0,0.457485715,0
1A_014,5,1,1,1,107,1,0,1,-1,1,1,1,0,0,0,0,0.460625792,0
1A_014,5,1,1,1,108,0,1,0,-1,-1,1,1,0,0,0,0,0.610794561,0
1A_014,5,1,1,1,109,0,0,1,0,-1,-1,1,-1,0,0,0,0.669728866,0
1A_014,5,1,1,1,110,0,0,1,0,0,-1,-1,1,-1,0,0,0.58007988,0
1A_014,5,1,1,1,111,1,0,1,0,0,0,-1,1,1,-1,0,0.520791672,0
1A_014,5,1,1,1,112,1,0,1,-1,0,0,0,0,1,1,-1,0.498368448,0
1A_014,5,1,1,1,113,1,0,1,-1,-1,0,0,0,0,1,1,0.574862345,0
1A_014,5,1,1,1,114,0,1,0,-1,-1,-1,0,0,0,0,1,0.496446351,0
1A_014,5,1,1,1,115,1,0,1,0,-1,-1,-1,-1,0,0,0,0.535169152,0
1A_014,5,1,1,1,116,1,0,1,-1,0,-1,-1,0,-1,0,0,0.554356542,0
1A_014,5,1,1,1,117,1,0,1,-1,-1,0,-1,0,0,-1,0,0.87649868,0
1A_014,5,1,1,1,118,1,0,1,-1,-1,-1,0,0,0,0,-1,0.48246377,0
1A_014,5,1,1,1,119,1,0,1,-1,-1,-1,-1,0,0,0,0,0.554746678,0
1A_014,5,1,1,1,120,0,1,0,-1,-1,-1,-1,0,0,0,0,0.576204786,0
1A_014,5,1,1,1,121,1,0,1,0,-1,-1,-1,-1,0,0,0,0.606089583,0
1A_014,5,1,1,1,122,0,0,1,-1,0,-1,-1,0,-1,0,0,0.583126931,0
1A_014,5,1,1,1,123,1,0,1,0,-1,0,-1,1,0,-1,0,0.807640757,0
1A_014,5,1,1,1,124,1,0,1,-1,0,-1,0,0,1,0,-1,0.539091273,0
1A_014,5,1,1,1,125,0,1,0,-1,-1,0,-1,0,0,1,0,0.609709997,0
1A_014,5,1,1,1,126,0,0,0,0,-1,-1,0,-1,0,0,1,0.637359911,1
1A_014,5,1,1,1,127,1,1,1,0,0,-1,-1,1,-1,0,0,0.716249058,1
1A_014,5,1,1,1,128,0,0,0,1,0,0,-1,0,1,-1,0,0.609392472,1
1A_014,5,1,1,1,129,0,0,0,0,1,0,0,1,0,1,-1,0.483995972,1
1A_014,5,1,1,1,130,0,1,1,0,0,1,0,1,1,0,1,0.637140013,1
1A_014,5,1,1,1,131,1,1,1,0,0,0,1,-1,1,1,0,0.949542329,1
1A_014,5,1,1,1,132,1,1,1,1,0,0,0,0,-1,1,1,0.392981156,1
1A_014,5,1,1,1,133,0,0,0,1,1,0,0,0,0,-1,1,0.387361142,1
1A_014,5,1,1,1,134,0,1,1,0,1,1,0,1,0,0,-1,0.330361578,1
1A_014,5,1,1,1,135,0,0,0,0,0,1,1,-1,1,0,0,1.01552759,1
1A_014,5,1,1,1,136,0,0,0,0,0,0,1,1,-1,1,0,0.443615616,1
1A_014,5,1,1,1,137,1,1,1,0,0,0,0,1,1,-1,1,0.582272494,1
1A_014,5,1,1,1,138,1,0,0,1,0,0,0,0,1,1,-1,0.386761572,1
1A_014,5,1,1,1,139,0,0,0,-1,1,0,0,0,0,1,1,0.351780969,1
1A_014,5,1,1,1,140,0,0,0,0,-1,1,0,1,0,0,1,0.502836086,1
1A_014,5,1,1,1,141,0,1,1,0,0,-1,1,1,1,0,0,0.547240137,1
1A_014,5,1,1,1,142,1,0,0,0,0,0,-1,-1,1,1,0,0.84747445,1
1A_014,5,1,1,1,143,0,0,0,-1,0,0,0,0,-1,1,1,0.373298402,1
1A_014,5,1,1,1,144,1,1,1,0,-1,0,0,1,0,-1,1,0.546149565,1
1A_014,5,1,1,1,145,0,1,1,1,0,-1,0,0,1,0,-1,0.478703422,1
1A_014,5,1,1,1,146,1,0,0,0,1,0,-1,-1,0,1,0,0.675211562,1
1A_014,5,1,1,1,147,0,0,0,-1,0,1,0,0,-1,0,1,0.436338759,1
1A_014,5,1,1,1,148,0,0,0,0,-1,0,1,1,0,-1,0,0.399067453,1
1A_014,5,1,1,1,149,0,0,0,0,0,-1,0,1,1,0,-1,0.65695299,1
1A_014,5,1,1,1,150,1,1,1,0,0,0,-1,1,1,1,0,0.622644119,1
1A_014,5,1,1,1,151,1,1,1,1,0,0,0,0,1,1,1,0.459794848,1
1A_014,5,1,1,1,152,1,1,1,1,1,0,0,0,0,1,1,0.401098325,1
1A_014,5,1,1,1,153,1,1,1,1,1,1,0,0,0,0,1,0.344593607,1
1A_014,5,1,1,1,154,1,1,1,1,1,1,1,0,0,0,0,0.416027185,1
1A_014,5,1,1,1,155,1,1,1,1,1,1,1,0,0,0,0,0.429015716,1
1A_014,5,1,1,1,156,1,1,1,1,1,1,1,0,0,0,0,0.545346061,1
1A_014,5,1,1,1,157,1,1,1,1,1,1,1,0,0,0,0,0.474183799,1
1A_014,5,1,1,1,158,1,1,1,1,1,1,1,0,0,0,0,0.475548314,1
1A_014,5,1,1,1,159,1,1,1,1,1,1,1,0,0,0,0,0.560648246,1
1A_014,5,1,1,1,160,1,1,1,1,1,1,1,0,0,0,0,0.441339544,1
1A_018,6,1,1,1,1,1,0,0,NaN,NaN,NaN,NaN,NaN,NaN,NaN,NaN,1.254728557,1
1A_018,6,1,1,1,2,0,0,0,-1,NaN,NaN,NaN,0,NaN,NaN,NaN,0.496643885,1
1A_018,6,1,1,1,3,0,0,0,0,-1,NaN,NaN,1,0,NaN,NaN,0.602813014,1
1A_018,6,1,1,1,4,1,1,1,0,0,-1,NaN,1,1,0,NaN,0.524389485,1
1A_018,6,1,1,1,5,1,1,1,1,0,0,-1,0,1,1,0,0.520903089,1
1A_018,6,1,1,1,6,1,1,1,1,1,0,0,0,0,1,1,0.65903389,1
1A_018,6,1,1,1,7,1,1,1,1,1,1,0,0,0,0,1,0.553599542,1
1A_018,6,1,1,1,8,0,1,1,1,1,1,1,0,0,0,0,0.514431828,1
1A_018,6,1,1,1,9,1,0,0,0,1,1,1,-1,0,0,0,0.463341591,1
1A_018,6,1,1,1,10,0,0,0,-1,0,1,1,0,-1,0,0,0.616811284,1
1A_018,6,1,1,1,11,0,0,0,0,-1,0,1,1,0,-1,0,0.650006435,1
1A_018,6,1,1,1,12,1,1,1,0,0,-1,0,1,1,0,-1,0.443497783,1
1A_018,6,1,1,1,13,1,1,1,1,0,0,-1,0,1,1,0,0.480663443,1
1A_018,6,1,1,1,14,1,1,1,1,1,0,0,0,0,1,1,0.445686149,1
1A_018,6,1,1,1,15,1,1,1,1,1,1,0,0,0,0,1,0.656866778,1
1A_018,6,1,1,1,16,1,1,1,1,1,1,1,0,0,0,0,0.611781496,1
1A_018,6,1,1,1,17,1,1,1,1,1,1,1,0,0,0,0,0.515812397,1
1A_018,6,1,1,1,18,0,1,1,1,1,1,1,0,0,0,0,0.662552698,1
1A_018,6,1,1,1,19,1,1,1,0,1,1,1,-1,0,0,0,0.431095649,1
1A_018,6,1,1,1,20,1,1,1,1,0,1,1,0,-1,0,0,0.390622249,1
1A_018,6,1,1,1,21,0,0,0,1,1,0,1,0,0,-1,0,0.421233035,1
1A_018,6,1,1,1,22,1,1,1,0,1,1,0,1,0,0,-1,0.558614372,1
1A_018,6,1,1,1,23,1,1,1,1,0,1,1,0,1,0,0,0.561295101,1
1A_018,6,1,1,1,24,1,1,1,1,1,0,1,0,0,1,0,0.534772954,1
1A_018,6,1,1,1,25,0,1,1,1,1,1,0,0,0,0,1,0.580004266,1
1A_018,6,1,1,1,26,1,1,1,0,1,1,1,-1,0,0,0,0.517482509,1
1A_018,6,1,1,1,27,1,1,1,1,0,1,1,0,-1,0,0,0.621057564,1
1A_018,6,1,1,1,28,0,1,1,1,1,0,1,0,0,-1,0,0.474265614,1
1A_018,6,1,1,1,29,1,1,1,0,1,1,0,-1,0,0,-1,0.550860555,1
1A_018,6,1,1,1,30,0,1,1,1,0,1,1,0,-1,0,0,0.560506452,1
1A_018,6,1,1,1,31,1,1,1,0,1,0,1,-1,0,-1,0,0.54939024,1
1A_018,6,1,1,1,32,0,0,0,1,0,1,0,0,-1,0,-1,0.569750255,1
1A_018,6,1,1,1,33,1,1,1,0,1,0,1,1,0,-1,0,0.69065615,1
1A_018,6,1,1,1,34,1,1,1,1,0,1,0,0,1,0,-1,0.59308084,1
1A_018,6,1,1,1,35,1,1,1,1,1,0,1,0,0,1,0,0.55973766,1
1A_018,6,1,1,1,36,1,1,1,1,1,1,0,0,0,0,1,0.562815266,1
1A_018,6,1,1,1,37,1,1,1,1,1,1,1,0,0,0,0,0.521691135,1
1A_018,6,1,1,1,38,1,1,1,1,1,1,1,0,0,0,0,0.514627548,1
1A_018,6,1,1,1,39,1,1,1,1,1,1,1,0,0,0,0,0.566329267,1
1A_018,6,1,1,1,40,1,1,1,1,1,1,1,0,0,0,0,0.555370351,1
1A_018,6,1,1,1,41,0,1,1,1,1,1,1,0,0,0,0,0.609222333,1
1A_018,6,1,1,1,42,1,1,1,0,1,1,1,-1,0,0,0,0.508879351,1
1A_018,6,1,1,1,43,1,1,1,1,0,1,1,0,-1,0,0,0.583456441,1
1A_018,6,1,1,1,44,0,1,1,1,1,0,1,0,0,-1,0,0.583692565,1
1A_018,6,1,1,1,45,1,1,1,0,1,1,0,-1,0,0,-1,0.525805168,1
1A_018,6,1,1,1,46,1,1,1,1,0,1,1,0,-1,0,0,0.535825376,1
1A_018,6,1,1,1,47,1,1,1,1,1,0,1,0,0,-1,0,0.51144192,1
1A_018,6,1,1,1,48,1,1,1,1,1,1,0,0,0,0,-1,0.589657358,1
1A_018,6,1,1,1,49,1,1,1,1,1,1,1,0,0,0,0,0.515637027,1
1A_018,6,1,1,1,50,1,1,1,1,1,1,1,0,0,0,0,0.483941174,1
1A_018,6,1,1,1,51,1,1,1,1,1,1,1,0,0,0,0,0.583932769,1
1A_018,6,1,1,1,52,1,1,1,1,1,1,1,0,0,0,0,0.51042912,1
1A_018,6,1,1,1,53,0,1,1,1,1,1,1,0,0,0,0,0.488326841,1
1A_018,6,1,1,1,54,0,1,1,0,1,1,1,-1,0,0,0,0.661369475,1
1A_018,6,1,1,1,55,1,1,1,0,0,1,1,-1,-1,0,0,0.601239864,1
1A_018,6,1,1,1,56,0,1,0,1,0,0,1,0,-1,-1,0,0.493206796,0
1A_018,6,1,1,1,57,0,1,0,0,1,0,0,-1,0,-1,-1,0.673514453,0
1A_018,6,1,1,1,58,1,0,1,0,0,1,0,-1,-1,0,-1,0.574294308,0
1A_018,6,1,1,1,59,0,0,1,-1,0,0,1,0,-1,-1,0,0.555286964,0
1A_018,6,1,1,1,60,1,0,1,0,-1,0,0,1,0,-1,-1,0.569799864,0
1A_018,6,1,1,1,61,0,0,1,-1,0,-1,0,0,1,0,-1,0.504177997,0
1A_018,6,1,1,1,62,0,0,1,0,-1,0,-1,1,0,1,0,0.590365747,0
1A_018,6,1,1,1,63,1,0,1,0,0,-1,0,1,1,0,1,0.525130117,0
1A_018,6,1,1,1,64,0,1,0,-1,0,0,-1,0,1,1,0,0.709808935,0
1A_018,6,1,1,1,65,0,0,1,0,-1,0,0,-1,0,1,1,0.543977643,0
1A_018,6,1,1,1,66,1,0,1,0,0,-1,0,1,-1,0,1,0.418712592,0
1A_018,6,1,1,1,67,1,0,1,-1,0,0,-1,0,1,-1,0,0.440084216,0
1A_018,6,1,1,1,68,0,1,0,-1,-1,0,0,0,0,1,-1,0.543328523,0
1A_018,6,1,1,1,69,1,0,1,0,-1,-1,0,-1,0,0,1,0.525433308,0
1A_018,6,1,1,1,70,1,0,1,-1,0,-1,-1,0,-1,0,0,0.506282557,0
1A_018,6,1,1,1,71,0,0,0,-1,-1,0,-1,0,0,-1,0,0.555667914,1
1A_018,6,1,1,1,72,0,0,0,0,-1,-1,0,1,0,0,-1,0.813541649,1
1A_018,6,1,1,1,73,0,0,0,0,0,-1,-1,1,1,0,0,0.472123571,1
1A_018,6,1,1,1,74,0,0,0,0,0,0,-1,1,1,1,0,0.462760273,1
1A_018,6,1,1,1,75,1,1,1,0,0,0,0,1,1,1,1,0.397238321,1
1A_018,6,1,1,1,76,1,1,1,1,0,0,0,0,1,1,1,0.461742268,1
1A_018,6,1,1,1,77,0,1,1,1,1,0,0,0,0,1,1,0.583876255,1
1A_018,6,1,1,1,78,1,0,0,0,1,1,0,-1,0,0,1,0.476736995,1
1A_018,6,1,1,1,79,0,1,1,-1,0,1,1,0,-1,0,0,0.662622035,1
1A_018,6,1,1,1,80,0,0,0,0,-1,0,1,-1,0,-1,0,0.541726563,1
1A_018,6,1,1,1,81,0,0,0,0,0,-1,0,1,-1,0,-1,0.79380889,1
1A_018,6,1,1,1,82,1,1,1,0,0,0,-1,1,1,-1,0,0.520668057,1
1A_018,6,1,1,1,83,1,1,1,1,0,0,0,0,1,1,-1,0.647277322,1
1A_018,6,1,1,1,84,1,1,1,1,1,0,0,0,0,1,1,0.518125926,1
1A_018,6,1,1,1,85,1,1,1,1,1,1,0,0,0,0,1,0.465684728,1
1A_018,6,1,1,1,86,1,1,1,1,1,1,1,0,0,0,0,0.606946372,1
1A_018,6,1,1,1,87,1,1,1,1,1,1,1,0,0,0,0,0.562566035,1
1A_018,6,1,1,1,88,1,1,1,1,1,1,1,0,0,0,0,0.467364416,1
1A_018,6,1,1,1,89,1,1,1,1,1,1,1,0,0,0,0,0.525434691,1
1A_018,6,1,1,1,90,1,1,1,1,1,1,1,0,0,0,0,0.532419437,1
1A_018,6,1,1,1,91,0,1,0,1,1,1,1,0,0,0,0,0.501675695,0
1A_018,6,1,1,1,92,0,1,0,0,1,1,1,-1,0,0,0,0.474593473,0
1A_018,6,1,1,1,93,1,1,0,0,0,1,1,-1,-1,0,0,0.426235342,0
1A_018,6,1,1,1,94,0,1,0,1,0,0,1,0,-1,-1,0,0.572900849,0
1A_018,6,1,1,1,95,0,1,0,0,1,0,0,-1,0,-1,-1,0.561989274,0
1A_018,6,1,1,1,96,0,1,0,0,0,1,0,-1,-1,0,-1,0.438076092,0
1A_018,6,1,1,1,97,0,0,1,0,0,0,1,-1,-1,-1,0,0.492669663,0
1A_018,6,1,1,1,98,1,0,1,0,0,0,0,1,-1,-1,-1,0.451959434,0
1A_018,6,1,1,1,99,1,0,1,-1,0,0,0,0,1,-1,-1,0.600542606,0
1A_018,6,1,1,1,100,0,0,1,-1,-1,0,0,0,0,1,-1,0.488001914,0
1A_018,6,1,1,1,101,1,0,1,0,-1,-1,0,1,0,0,1,0.487973244,0
1A_018,6,1,1,1,102,1,0,1,-1,0,-1,-1,0,1,0,0,0.523061672,0
1A_018,6,1,1,1,103,0,0,1,-1,-1,0,-1,0,0,1,0,0.484524884,0
1A_018,6,1,1,1,104,1,0,1,0,-1,-1,0,1,0,0,1,0.838146052,0
1A_018,6,1,1,1,105,1,0,1,-1,0,-1,-1,0,1,0,0,0.547039568,0
1A_018,6,1,1,1,106,0,0,0,-1,-1,0,-1,0,0,1,0,0.580425725,1
1A_018,6,1,1,1,107,1,0,0,0,-1,-1,0,1,0,0,1,0.476697295,1
1A_018,6,1,1,1,108,0,0,0,-1,0,-1,-1,0,1,0,0,0.517893936,1
1A_018,6,1,1,1,109,0,0,0,0,-1,0,-1,1,0,1,0,0.509972603,1
1A_018,6,1,1,1,110,0,0,0,0,0,-1,0,1,1,0,1,0.561068102,1
1A_018,6,1,1,1,111,1,1,1,0,0,0,-1,1,1,1,0,0.675273794,1
1A_018,6,1,1,1,112,1,1,1,1,0,0,0,0,1,1,1,0.475039397,1
1A_018,6,1,1,1,113,1,1,1,1,1,0,0,0,0,1,1,0.527487493,1
1A_018,6,1,1,1,114,1,1,1,1,1,1,0,0,0,0,1,0.683447893,1
1A_018,6,1,1,1,115,0,0,0,1,1,1,1,0,0,0,0,0.638203634,1
1A_018,6,1,1,1,116,1,1,1,0,1,1,1,1,0,0,0,0.511565403,1
1A_018,6,1,1,1,117,1,1,1,1,0,1,1,0,1,0,0,0.574273096,1
1A_018,6,1,1,1,118,1,1,1,1,1,0,1,0,0,1,0,0.491274979,1
1A_018,6,1,1,1,119,1,1,1,1,1,1,0,0,0,0,1,0.623693934,1
1A_018,6,1,1,1,120,1,1,1,1,1,1,1,0,0,0,0,0.608571777,1
1A_018,6,1,1,1,121,0,1,1,1,1,1,1,0,0,0,0,0.544700858,1
1A_018,6,1,1,1,122,1,1,1,0,1,1,1,-1,0,0,0,0.47982753,1
1A_018,6,1,1,1,123,1,1,1,1,0,1,1,0,-1,0,0,0.535611035,1
1A_018,6,1,1,1,124,1,1,1,1,1,0,1,0,0,-1,0,0.562988604,1
1A_018,6,1,1,1,125,1,1,1,1,1,1,0,0,0,0,-1,0.498692993,1
1A_018,6,1,1,1,126,1,1,0,1,1,1,1,0,0,0,0,0.608505091,0
1A_018,6,1,1,1,127,0,1,0,1,1,1,1,0,0,0,0,0.789208602,0
1A_018,6,1,1,1,128,0,1,0,0,1,1,1,-1,0,0,0,0.478784924,0
1A_018,6,1,1,1,129,1,0,1,0,0,1,1,-1,-1,0,0,0.435925939,0
1A_018,6,1,1,1,130,1,0,1,-1,0,0,1,0,-1,-1,0,0.466139075,0
1A_018,6,1,1,1,131,1,0,1,-1,-1,0,0,0,0,-1,-1,0.473498916,0
1A_018,6,1,1,1,132,1,0,1,-1,-1,-1,0,0,0,0,-1,0.472290586,0
1A_018,6,1,1,1,133,1,0,1,-1,-1,-1,-1,0,0,0,0,0.531988793,0
1A_018,6,1,1,1,134,1,0,1,-1,-1,-1,-1,0,0,0,0,0.479899646,0
1A_018,6,1,1,1,135,1,0,1,-1,-1,-1,-1,0,0,0,0,0.524690303,0
1A_018,6,1,1,1,136,1,0,1,-1,-1,-1,-1,0,0,0,0,0.567942417,0
1A_018,6,1,1,1,137,1,0,1,-1,-1,-1,-1,0,0,0,0,0.488419566,0
1A_018,6,1,1,1,138,1,0,1,-1,-1,-1,-1,0,0,0,0,0.656894937,0
1A_018,6,1,1,1,139,1,0,1,-1,-1,-1,-1,0,0,0,0,0.621715926,0
1A_018,6,1,1,1,140,0,0,1,-1,-1,-1,-1,0,0,0,0,0.492838517,0
1A_018,6,1,1,1,141,0,0,1,0,-1,-1,-1,1,0,0,0,0.472867426,0
1A_018,6,1,1,1,142,0,1,0,0,0,-1,-1,1,1,0,0,0.617039165,0
1A_018,6,1,1,1,143,1,1,0,0,0,0,-1,-1,1,1,0,0.473442094,0
1A_018,6,1,1,1,144,1,1,0,1,0,0,0,0,-1,1,1,0.421158906,0
1A_018,6,1,1,1,145,0,1,0,1,1,0,0,0,0,-1,1,0.510340616,0
1A_018,6,1,1,1,146,0,1,0,0,1,1,0,-1,0,0,-1,0.459873683,0
1A_018,6,1,1,1,147,1,0,1,0,0,1,1,-1,-1,0,0,0.469412994,0
1A_018,6,1,1,1,148,0,0,1,-1,0,0,1,0,-1,-1,0,0.916745926,0
1A_018,6,1,1,1,149,0,1,0,0,-1,0,0,1,0,-1,-1,0.605321653,0
1A_018,6,1,1,1,150,1,1,0,0,0,-1,0,-1,1,0,-1,0.789588847,0
1A_018,6,1,1,1,151,0,1,0,1,0,0,-1,0,-1,1,0,0.468493987,0
1A_018,6,1,1,1,152,1,0,1,0,1,0,0,-1,0,-1,1,0.564567989,0
1A_018,6,1,1,1,153,1,0,1,-1,0,1,0,0,-1,0,-1,0.482842814,0
1A_018,6,1,1,1,154,1,0,1,-1,-1,0,1,0,0,-1,0,0.513252018,0
1A_018,6,1,1,1,155,1,0,1,-1,-1,-1,0,0,0,0,-1,0.590074306,0
1A_018,6,1,1,1,156,1,0,1,-1,-1,-1,-1,0,0,0,0,0.46835967,0
1A_018,6,1,1,1,157,0,0,1,-1,-1,-1,-1,0,0,0,0,0.476776532,0
1A_018,6,1,1,1,158,1,0,1,0,-1,-1,-1,1,0,0,0,0.428370333,0
1A_018,6,1,1,1,159,0,0,1,-1,0,-1,-1,0,1,0,0,0.414351269,0
1A_018,6,1,1,1,160,1,0,1,0,-1,0,-1,1,0,1,0,0.541553456,0
1A_019,7,1,1,1,1,0,1,0,NaN,NaN,NaN,NaN,NaN,NaN,NaN,NaN,0.765695211,0
1A_019,7,1,1,1,2,1,0,1,0,NaN,NaN,NaN,-1,NaN,NaN,NaN,0.832913088,0
1A_019,7,1,1,1,3,1,0,1,-1,0,NaN,NaN,0,-1,NaN,NaN,0.732319322,0
1A_019,7,1,1,1,4,1,0,1,-1,-1,0,NaN,0,0,-1,NaN,0.744990249,0
1A_019,7,1,1,1,5,1,0,1,-1,-1,-1,0,0,0,0,-1,0.553549794,0
1A_019,7,1,1,1,6,1,0,1,-1,-1,-1,-1,0,0,0,0,0.824986269,0
1A_019,7,1,1,1,7,1,0,1,-1,-1,-1,-1,0,0,0,0,0.853197995,0
1A_019,7,1,1,1,8,1,0,1,-1,-1,-1,-1,0,0,0,0,0.654973588,0
1A_019,7,1,1,1,9,0,0,1,-1,-1,-1,-1,0,0,0,0,0.551485129,0
1A_019,7,1,1,1,10,1,0,1,0,-1,-1,-1,1,0,0,0,0.771533657,0
1A_019,7,1,1,1,11,1,0,1,-1,0,-1,-1,0,1,0,0,0.840830789,0
1A_019,7,1,1,1,12,0,0,1,-1,-1,0,-1,0,0,1,0,0.648072968,0
1A_019,7,1,1,1,13,1,0,1,0,-1,-1,0,1,0,0,1,0.675878483,0
1A_019,7,1,1,1,14,1,0,1,-1,0,-1,-1,0,1,0,0,0.534817687,0
1A_019,7,1,1,1,15,1,0,1,-1,-1,0,-1,0,0,1,0,0.529590852,0
1A_019,7,1,1,1,16,1,0,1,-1,-1,-1,0,0,0,0,1,0.550148668,0
1A_019,7,1,1,1,17,0,1,0,-1,-1,-1,-1,0,0,0,0,0.903909264,0
1A_019,7,1,1,1,18,1,0,1,0,-1,-1,-1,-1,0,0,0,0.840225041,0
1A_019,7,1,1,1,19,1,0,1,-1,0,-1,-1,0,-1,0,0,0.541107776,0
1A_019,7,1,1,1,20,1,0,1,-1,-1,0,-1,0,0,-1,0,0.596514606,0
1A_019,7,1,1,1,21,1,0,1,-1,-1,-1,0,0,0,0,-1,0.519491589,0
1A_019,7,1,1,1,22,1,0,1,-1,-1,-1,-1,0,0,0,0,0.566704674,0
1A_019,7,1,1,1,23,0,0,1,-1,-1,-1,-1,0,0,0,0,0.608499333,0
1A_019,7,1,1,1,24,0,1,0,0,-1,-1,-1,1,0,0,0,0.649195141,0
1A_019,7,1,1,1,25,0,0,1,0,0,-1,-1,-1,1,0,0,0.658168614,0
1A_019,7,1,1,1,26,1,0,1,0,0,0,-1,1,-1,1,0,0.560226761,0
1A_019,7,1,1,1,27,1,0,1,-1,0,0,0,0,1,-1,1,0.658043123,0
1A_019,7,1,1,1,28,1,0,1,-1,-1,0,0,0,0,1,-1,0.778178029,0
1A_019,7,1,1,1,29,1,0,1,-1,-1,-1,0,0,0,0,1,0.550328226,0
1A_019,7,1,1,1,30,0,0,1,-1,-1,-1,-1,0,0,0,0,0.606493111,0
1A_019,7,1,1,1,31,1,0,1,0,-1,-1,-1,1,0,0,0,0.604441304,0
1A_019,7,1,1,1,32,1,0,1,-1,0,-1,-1,0,1,0,0,0.517277284,0
1A_019,7,1,1,1,33,1,0,1,-1,-1,0,-1,0,0,1,0,0.498444136,0
1A_019,7,1,1,1,34,1,0,1,-1,-1,-1,0,0,0,0,1,0.571755864,0
1A_019,7,1,1,1,35,1,0,1,-1,-1,-1,-1,0,0,0,0,0.464844506,0
1A_019,7,1,1,1,36,1,0,1,-1,-1,-1,-1,0,0,0,0,0.564692472,0
1A_019,7,1,1,1,37,1,0,1,-1,-1,-1,-1,0,0,0,0,0.526177626,0
1A_019,7,1,1,1,38,1,0,1,-1,-1,-1,-1,0,0,0,0,0.611237417,0
1A_019,7,1,1,1,39,1,0,1,-1,-1,-1,-1,0,0,0,0,0.554988973,0
1A_019,7,1,1,1,40,1,0,1,-1,-1,-1,-1,0,0,0,0,0.553733104,0
1A_019,7,1,1,1,41,1,0,1,-1,-1,-1,-1,0,0,0,0,0.592239783,0
1A_019,7,1,1,1,42,0,0,1,-1,-1,-1,-1,0,0,0,0,0.586958181,0
1A_019,7,1,1,1,43,0,0,1,0,-1,-1,-1,1,0,0,0,0.747656246,0
1A_019,7,1,1,1,44,0,1,0,0,0,-1,-1,1,1,0,0,0.707688129,0
1A_019,7,1,1,1,45,1,0,1,0,0,0,-1,-1,1,1,0,0.807786512,0
1A_019,7,1,1,1,46,1,0,1,-1,0,0,0,0,-1,1,1,0.763254451,0
1A_019,7,1,1,1,47,1,0,1,-1,-1,0,0,0,0,-1,1,0.521390922,0
1A_019,7,1,1,1,48,0,0,1,-1,-1,-1,0,0,0,0,-1,0.630867346,0
1A_019,7,1,1,1,49,1,0,1,0,-1,-1,-1,1,0,0,0,0.587703308,0
1A_019,7,1,1,1,50,0,0,1,-1,0,-1,-1,0,1,0,0,0.563961348,0
1A_019,7,1,1,1,51,1,0,1,0,-1,0,-1,1,0,1,0,0.654819783,0
1A_019,7,1,1,1,52,0,1,0,-1,0,-1,0,0,1,0,1,0.562851838,0
1A_019,7,1,1,1,53,1,0,1,0,-1,0,-1,-1,0,1,0,0.524525625,0
1A_019,7,1,1,1,54,1,0,1,-1,0,-1,0,0,-1,0,1,0.622653763,0
1A_019,7,1,1,1,55,1,0,1,-1,-1,0,-1,0,0,-1,0,0.580242186,0
1A_019,7,1,1,1,56,1,0,0,-1,-1,-1,0,0,0,0,-1,0.587095285,1
1A_019,7,1,1,1,57,0,0,0,-1,-1,-1,-1,0,0,0,0,0.534137503,1
1A_019,7,1,1,1,58,0,0,0,0,-1,-1,-1,1,0,0,0,0.593500834,1
1A_019,7,1,1,1,59,0,0,0,0,0,-1,-1,1,1,0,0,0.54333829,1
1A_019,7,1,1,1,60,0,0,0,0,0,0,-1,1,1,1,0,0.654895818,1
1A_019,7,1,1,1,61,1,1,1,0,0,0,0,1,1,1,1,0.802225265,1
1A_019,7,1,1,1,62,1,1,1,1,0,0,0,0,1,1,1,0.586884263,1
1A_019,7,1,1,1,63,1,1,1,1,1,0,0,0,0,1,1,0.674594776,1
1A_019,7,1,1,1,64,1,1,1,1,1,1,0,0,0,0,1,0.652958667,1
1A_019,7,1,1,1,65,1,1,1,1,1,1,1,0,0,0,0,0.644258596,1
1A_019,7,1,1,1,66,1,1,1,1,1,1,1,0,0,0,0,0.617405146,1
1A_019,7,1,1,1,67,1,1,1,1,1,1,1,0,0,0,0,0.897876837,1
1A_019,7,1,1,1,68,1,1,1,1,1,1,1,0,0,0,0,0.674870654,1
1A_019,7,1,1,1,69,1,1,1,1,1,1,1,0,0,0,0,0.576241429,1
1A_019,7,1,1,1,70,1,1,1,1,1,1,1,0,0,0,0,0.682381177,1
1A_019,7,1,1,1,71,0,1,0,1,1,1,1,0,0,0,0,0.587875178,0
1A_019,7,1,1,1,72,0,1,0,0,1,1,1,-1,0,0,0,0.674986079,0
1A_019,7,1,1,1,73,1,0,1,0,0,1,1,-1,-1,0,0,0.770684042,0
1A_019,7,1,1,1,74,1,0,1,-1,0,0,1,0,-1,-1,0,0.618604771,0
1A_019,7,1,1,1,75,1,0,1,-1,-1,0,0,0,0,-1,-1,0.595561485,0
1A_019,7,1,1,1,76,1,0,1,-1,-1,-1,0,0,0,0,-1,0.641911634,0
1A_019,7,1,1,1,77,1,0,1,-1,-1,-1,-1,0,0,0,0,0.705253489,0
1A_019,7,1,1,1,78,1,0,1,-1,-1,-1,-1,0,0,0,0,0.608724716,0
1A_019,7,1,1,1,79,0,0,1,-1,-1,-1,-1,0,0,0,0,0.689062735,0
1A_019,7,1,1,1,80,0,0,1,0,-1,-1,-1,1,0,0,0,0.64596118,0
1A_019,7,1,1,1,81,0,1,0,0,0,-1,-1,1,1,0,0,0.713077183,0
1A_019,7,1,1,1,82,0,1,0,0,0,0,-1,-1,1,1,0,0.63914225,0
1A_019,7,1,1,1,83,1,0,1,0,0,0,0,-1,-1,1,1,0.694446256,0
1A_019,7,1,1,1,84,1,0,1,-1,0,0,0,0,-1,-1,1,0.470560355,0
1A_019,7,1,1,1,85,1,0,1,-1,-1,0,0,0,0,-1,-1,0.475432658,0
1A_019,7,1,1,1,86,0,0,1,-1,-1,-1,0,0,0,0,-1,0.516064861,0
1A_019,7,1,1,1,87,1,0,1,0,-1,-1,-1,1,0,0,0,0.844872482,0
1A_019,7,1,1,1,88,1,0,1,-1,0,-1,-1,0,1,0,0,0.662318081,0
1A_019,7,1,1,1,89,0,0,1,-1,-1,0,-1,0,0,1,0,0.552694064,0
1A_019,7,1,1,1,90,1,0,1,0,-1,-1,0,1,0,0,1,0.808214809,0
1A_019,7,1,1,1,91,0,0,0,-1,0,-1,-1,0,1,0,0,0.603222901,1
1A_019,7,1,1,1,92,0,0,0,0,-1,0,-1,1,0,1,0,0,1
1A_019,7,1,1,1,93,0,0,0,NaN,0,-1,0,NaN,1,0,1,0.585524523,1
1A_019,7,1,1,1,94,1,1,1,0,NaN,0,-1,1,NaN,1,0,0.808868085,1
1A_019,7,1,1,1,95,1,1,1,1,0,NaN,0,0,1,NaN,1,0.70541614,1
1A_019,7,1,1,1,96,1,1,1,1,1,0,NaN,0,0,1,NaN,0.767191284,1
1A_019,7,1,1,1,97,0,1,1,1,1,1,0,0,0,0,1,0.801502815,1
1A_019,7,1,1,1,98,1,1,1,0,1,1,1,-1,0,0,0,1.045627245,1
1A_019,7,1,1,1,99,1,1,1,1,0,1,1,0,-1,0,0,0.71160648,1
1A_019,7,1,1,1,100,1,1,1,1,1,0,1,0,0,-1,0,0.606335353,1
1A_019,7,1,1,1,101,1,1,1,1,1,1,0,0,0,0,-1,0.637665065,1
1A_019,7,1,1,1,102,0,0,0,1,1,1,1,0,0,0,0,0.648013789,1
1A_019,7,1,1,1,103,1,1,1,0,1,1,1,1,0,0,0,0.885561495,1
1A_019,7,1,1,1,104,1,1,1,1,0,1,1,0,1,0,0,0.776601879,1
1A_019,7,1,1,1,105,1,1,1,1,1,0,1,0,0,1,0,0.707798014,1
1A_019,7,1,1,1,106,0,1,0,1,1,1,0,0,0,0,1,0.668471062,0
1A_019,7,1,1,1,107,0,1,0,0,1,1,1,-1,0,0,0,1.107545368,0
1A_019,7,1,1,1,108,0,1,0,0,0,1,1,-1,-1,0,0,0.762535835,0
1A_019,7,1,1,1,109,1,0,1,0,0,0,1,-1,-1,-1,0,0.724574725,0
1A_019,7,1,1,1,110,0,0,1,-1,0,0,0,0,-1,-1,-1,0.54202676,0
1A_019,7,1,1,1,111,0,1,0,0,-1,0,0,1,0,-1,-1,0.8246845,0
1A_019,7,1,1,1,112,1,0,1,0,0,-1,0,-1,1,0,-1,0.769305362,0
1A_019,7,1,1,1,113,1,0,1,-1,0,0,-1,0,-1,1,0,0.542602292,0
1A_019,7,1,1,1,114,1,0,1,-1,-1,0,0,0,0,-1,1,0.631607064,0
1A_019,7,1,1,1,115,1,0,1,-1,-1,-1,0,0,0,0,-1,0.621157812,0
1A_019,7,1,1,1,116,1,0,1,-1,-1,-1,-1,0,0,0,0,0.540358665,0
1A_019,7,1,1,1,117,1,0,1,-1,-1,-1,-1,0,0,0,0,0.519090899,0
1A_019,7,1,1,1,118,1,0,1,-1,-1,-1,-1,0,0,0,0,0.525287955,0
1A_019,7,1,1,1,119,1,0,1,-1,-1,-1,-1,0,0,0,0,0.658352575,0
1A_019,7,1,1,1,120,1,0,1,-1,-1,-1,-1,0,0,0,0,0.574828471,0
1A_019,7,1,1,1,121,1,0,1,-1,-1,-1,-1,0,0,0,0,0.560059071,0
1A_019,7,1,1,1,122,1,0,1,-1,-1,-1,-1,0,0,0,0,0.528813984,0
1A_019,7,1,1,1,123,1,0,1,-1,-1,-1,-1,0,0,0,0,0.643106292,0
1A_019,7,1,1,1,124,0,0,1,-1,-1,-1,-1,0,0,0,0,0.553307816,0
1A_019,7,1,1,1,125,1,0,1,0,-1,-1,-1,1,0,0,0,0.584947021,0
1A_019,7,1,1,1,126,0,0,0,-1,0,-1,-1,0,1,0,0,0.551240086,1
1A_019,7,1,1,1,127,0,0,0,0,-1,0,-1,1,0,1,0,0.944031392,1
1A_019,7,1,1,1,128,0,1,1,0,0,-1,0,1,1,0,1,0.541860637,1
1A_019,7,1,1,1,129,1,1,1,0,0,0,-1,-1,1,1,0,0.528286677,1
1A_019,7,1,1,1,130,1,1,1,1,0,0,0,0,-1,1,1,0.848160795,1
1A_019,7,1,1,1,131,0,1,1,1,1,0,0,0,0,-1,1,0.981162309,1
1A_019,7,1,1,1,132,0,0,0,0,1,1,0,-1,0,0,-1,0.963969155,1
1A_019,7,1,1,1,133,0,1,1,0,0,1,1,1,-1,0,0,0.788131521,1
1A_019,7,1,1,1,134,1,1,1,0,0,0,1,-1,1,-1,0,1.06339456,1
1A_019,7,1,1,1,135,1,1,1,1,0,0,0,0,-1,1,-1,0.819385949,1
1A_019,7,1,1,1,136,1,1,1,1,1,0,0,0,0,-1,1,0.649060495,1
1A_019,7,1,1,1,137,1,1,1,1,1,1,0,0,0,0,-1,0.645526249,1
1A_019,7,1,1,1,138,1,1,1,1,1,1,1,0,0,0,0,0.867422421,1
1A_019,7,1,1,1,139,1,1,1,1,1,1,1,0,0,0,0,0.812067598,1
1A_019,7,1,1,1,140,1,1,1,1,1,1,1,0,0,0,0,0.679167451,1
1A_019,7,1,1,1,141,1,1,1,1,1,1,1,0,0,0,0,0.756124113,1
1A_019,7,1,1,1,142,1,1,1,1,1,1,1,0,0,0,0,0.704308382,1
1A_019,7,1,1,1,143,0,1,1,1,1,1,1,0,0,0,0,0.684647562,1
1A_019,7,1,1,1,144,0,0,0,0,1,1,1,-1,0,0,0,0.788464661,1
1A_019,7,1,1,1,145,1,1,1,0,0,1,1,1,-1,0,0,0.754126474,1
1A_019,7,1,1,1,146,0,1,1,1,0,0,1,0,1,-1,0,0.733283677,1
1A_019,7,1,1,1,147,0,1,1,0,1,0,0,-1,0,1,-1,0.757683716,1
1A_019,7,1,1,1,148,1,1,1,0,0,1,0,-1,-1,0,1,0.829883666,1
1A_019,7,1,1,1,149,1,1,1,1,0,0,1,0,-1,-1,0,0.699843987,1
1A_019,7,1,1,1,150,1,1,1,1,1,0,0,0,0,-1,-1,0.587198875,1
1A_019,7,1,1,1,151,1,1,1,1,1,1,0,0,0,0,-1,0.553103493,1
1A_019,7,1,1,1,152,1,1,1,1,1,1,1,0,0,0,0,0.563269791,1
1A_019,7,1,1,1,153,1,1,1,1,1,1,1,0,0,0,0,0.652740577,1
1A_019,7,1,1,1,154,1,1,1,1,1,1,1,0,0,0,0,0.576477199,1
1A_019,7,1,1,1,155,0,1,1,1,1,1,1,0,0,0,0,0.675859916,1
1A_019,7,1,1,1,156,0,1,1,0,1,1,1,-1,0,0,0,0.852734961,1
1A_019,7,1,1,1,157,0,0,0,0,0,1,1,-1,-1,0,0,0.610760987,1
1A_019,7,1,1,1,158,1,0,0,0,0,0,1,1,-1,-1,0,0.619175626,1
1A_019,7,1,1,1,159,0,0,0,-1,0,0,0,0,1,-1,-1,0.571420889,1
1A_019,7,1,1,1,160,1,1,1,0,-1,0,0,1,0,1,-1,0.586208802,1
1A_020,8,1,1,1,1,0,0,0,NaN,NaN,NaN,NaN,NaN,NaN,NaN,NaN,0,0
1A_020,8,1,1,1,2,0,1,0,NaN,NaN,NaN,NaN,NaN,NaN,NaN,NaN,0.377488502,0
1A_020,8,1,1,1,3,1,0,1,0,NaN,NaN,NaN,-1,NaN,NaN,NaN,0.901027688,0
1A_020,8,1,1,1,4,1,0,1,-1,0,NaN,NaN,0,-1,NaN,NaN,0.644183721,0
1A_020,8,1,1,1,5,1,0,1,-1,-1,0,NaN,0,0,-1,NaN,0.669855154,0
1A_020,8,1,1,1,6,1,0,1,-1,-1,-1,0,0,0,0,-1,0.763013117,0
1A_020,8,1,1,1,7,1,0,1,-1,-1,-1,-1,0,0,0,0,0.596082819,0
1A_020,8,1,1,1,8,0,0,1,-1,-1,-1,-1,0,0,0,0,0.733673551,0
1A_020,8,1,1,1,9,1,0,1,0,-1,-1,-1,1,0,0,0,0.6014539,0
1A_020,8,1,1,1,10,1,1,0,-1,0,-1,-1,0,1,0,0,0.648849393,0
1A_020,8,1,1,1,11,0,1,0,1,-1,0,-1,0,0,1,0,0.661825753,0
1A_020,8,1,1,1,12,0,1,0,0,1,-1,0,-1,0,0,1,0.796946747,0
1A_020,8,1,1,1,13,0,1,0,0,0,1,-1,-1,-1,0,0,0.595491773,0
1A_020,8,1,1,1,14,1,0,1,0,0,0,1,-1,-1,-1,0,0.778063375,0
1A_020,8,1,1,1,15,0,1,0,-1,0,0,0,0,-1,-1,-1,0.700062946,0
1A_020,8,1,1,1,16,1,0,1,0,-1,0,0,-1,0,-1,-1,0.519595653,0
1A_020,8,1,1,1,17,1,0,1,-1,0,-1,0,0,-1,0,-1,0.501293684,0
1A_020,8,1,1,1,18,1,0,1,-1,-1,0,-1,0,0,-1,0,0.40310052,0
1A_020,8,1,1,1,19,0,1,0,-1,-1,-1,0,0,0,0,-1,0.5499098,0
1A_020,8,1,1,1,20,1,0,1,0,-1,-1,-1,-1,0,0,0,0.505684969,0
1A_020,8,1,1,1,21,0,1,0,-1,0,-1,-1,0,-1,0,0,0.600316625,0
1A_020,8,1,1,1,22,0,1,0,0,-1,0,-1,-1,0,-1,0,0.53723484,0
1A_020,8,1,1,1,23,0,1,0,0,0,-1,0,-1,-1,0,-1,0.63788032,0
1A_020,8,1,1,1,24,0,0,1,0,0,0,-1,-1,-1,-1,0,0.445124757,0
1A_020,8,1,1,1,25,1,0,1,0,0,0,0,1,-1,-1,-1,0.575432648,0
1A_020,8,1,1,1,26,1,0,1,-1,0,0,0,0,1,-1,-1,0.652802147,0
1A_020,8,1,1,1,27,1,0,1,-1,-1,0,0,0,0,1,-1,0.664539266,0
1A_020,8,1,1,1,28,0,0,1,-1,-1,-1,0,0,0,0,1,0.811375133,0
1A_020,8,1,1,1,29,1,0,1,0,-1,-1,-1,1,0,0,0,0.723749141,0
1A_020,8,1,1,1,30,1,0,1,-1,0,-1,-1,0,1,0,0,0.886909775,0
1A_020,8,1,1,1,31,1,1,0,-1,-1,0,-1,0,0,1,0,0.902657098,0
1A_020,8,1,1,1,32,0,0,1,1,-1,-1,0,0,0,0,1,0.644775678,0
1A_020,8,1,1,1,33,0,1,0,0,1,-1,-1,1,0,0,0,0.519666797,0
1A_020,8,1,1,1,34,1,1,0,0,0,1,-1,-1,1,0,0,0.846586581,0
1A_020,8,1,1,1,35,1,0,1,1,0,0,1,0,-1,1,0,0.643002103,0
1A_020,8,1,1,1,36,1,0,1,-1,1,0,0,0,0,-1,1,0.62450942,0
1A_020,8,1,1,1,37,0,0,1,-1,-1,1,0,0,0,0,-1,0.606876449,0
1A_020,8,1,1,1,38,0,1,0,0,-1,-1,1,1,0,0,0,0.464040175,0
1A_020,8,1,1,1,39,1,0,1,0,0,-1,-1,-1,1,0,0,0.626635155,0
1A_020,8,1,1,1,40,1,0,1,-1,0,0,-1,0,-1,1,0,0.54165267,0
1A_020,8,1,1,1,41,0,1,0,-1,-1,0,0,0,0,-1,1,0.586879506,0
1A_020,8,1,1,1,42,0,1,0,0,-1,-1,0,-1,0,0,-1,0.585136827,0
1A_020,8,1,1,1,43,1,0,1,0,0,-1,-1,-1,-1,0,0,0.510058332,0
1A_020,8,1,1,1,44,1,0,1,-1,0,0,-1,0,-1,-1,0,0.5360258,0
1A_020,8,1,1,1,45,1,0,1,-1,-1,0,0,0,0,-1,-1,0.795603117,0
1A_020,8,1,1,1,46,1,0,1,-1,-1,-1,0,0,0,0,-1,0.60981775,0
1A_020,8,1,1,1,47,1,0,1,-1,-1,-1,-1,0,0,0,0,0.545703913,0
1A_020,8,1,1,1,48,0,0,1,-1,-1,-1,-1,0,0,0,0,0.542365304,0
1A_020,8,1,1,1,49,0,1,0,0,-1,-1,-1,1,0,0,0,0.789711576,0
1A_020,8,1,1,1,50,1,0,1,0,0,-1,-1,-1,1,0,0,0.577020751,0
1A_020,8,1,1,1,51,0,1,0,-1,0,0,-1,0,-1,1,0,0.552632077,0
1A_020,8,1,1,1,52,1,0,1,0,-1,0,0,-1,0,-1,1,0.611590812,0
1A_020,8,1,1,1,53,1,0,1,-1,0,-1,0,0,-1,0,-1,0.532433092,0
1A_020,8,1,1,1,54,1,0,1,-1,-1,0,-1,0,0,-1,0,0.47555141,0
1A_020,8,1,1,1,55,0,1,0,-1,-1,-1,0,0,0,0,-1,0.573093348,0
1A_020,8,1,1,1,56,0,0,0,0,-1,-1,-1,-1,0,0,0,0.516450474,1
1A_020,8,1,1,1,57,1,1,1,0,0,-1,-1,1,-1,0,0,0.587659349,1
1A_020,8,1,1,1,58,0,0,0,1,0,0,-1,0,1,-1,0,0,1
1A_020,8,1,1,1,59,0,1,1,NaN,1,0,0,NaN,0,1,-1,0.55723866,1
1A_020,8,1,1,1,60,0,1,1,0,NaN,1,0,-1,NaN,0,1,0.560658013,1
1A_020,8,1,1,1,61,1,1,1,0,0,NaN,1,-1,-1,NaN,0,0.533482963,1
1A_020,8,1,1,1,62,1,1,1,1,0,0,NaN,0,-1,-1,NaN,0.522955489,1
1A_020,8,1,1,1,63,0,1,1,1,1,0,0,0,0,-1,-1,0.646243995,1
1A_020,8,1,1,1,64,0,0,0,0,1,1,0,-1,0,0,-1,0.559071843,1
1A_020,8,1,1,1,65,0,0,0,0,0,1,1,1,-1,0,0,0.449943409,1
1A_020,8,1,1,1,66,0,1,1,0,0,0,1,1,1,-1,0,0.48631948,1
1A_020,8,1,1,1,67,1,1,1,0,0,0,0,-1,1,1,-1,0.430490795,1
1A_020,8,1,1,1,68,0,0,0,1,0,0,0,0,-1,1,1,0.532162709,1
1A_020,8,1,1,1,69,1,1,1,0,1,0,0,1,0,-1,1,0.55982096,1
1A_020,8,1,1,1,70,0,0,0,1,0,1,0,0,1,0,-1,0.642244777,1
1A_020,8,1,1,1,71,1,0,1,0,1,0,1,1,0,1,0,0.726963489,0
1A_020,8,1,1,1,72,0,1,0,-1,0,1,0,0,1,0,1,0.50210132,0
1A_020,8,1,1,1,73,1,1,0,0,-1,0,1,-1,0,1,0,0.498802769,0
1A_020,8,1,1,1,74,0,1,0,1,0,-1,0,0,-1,0,1,0.627415236,0
1A_020,8,1,1,1,75,0,1,0,0,1,0,-1,-1,0,-1,0,0.46033195,0
1A_020,8,1,1,1,76,0,1,0,0,0,1,0,-1,-1,0,-1,0.468782617,0
1A_020,8,1,1,1,77,1,0,1,0,0,0,1,-1,-1,-1,0,0.525697565,0
1A_020,8,1,1,1,78,1,0,1,-1,0,0,0,0,-1,-1,-1,0.49247961,0
1A_020,8,1,1,1,79,0,1,0,-1,-1,0,0,0,0,-1,-1,0.490901191,0
1A_020,8,1,1,1,80,1,1,0,0,-1,-1,0,-1,0,0,-1,0.480841974,0
1A_020,8,1,1,1,81,1,0,1,1,0,-1,-1,0,-1,0,0,0.558223285,0
1A_020,8,1,1,1,82,0,1,0,-1,1,0,-1,0,0,-1,0,0.662472415,0
1A_020,8,1,1,1,83,1,0,1,0,-1,1,0,-1,0,0,-1,0.412435721,0
1A_020,8,1,1,1,84,0,1,0,-1,0,-1,1,0,-1,0,0,0.610863036,0
1A_020,8,1,1,1,85,0,1,0,0,-1,0,-1,-1,0,-1,0,0.45316992,0
1A_020,8,1,1,1,86,1,1,0,0,0,-1,0,-1,-1,0,-1,0.528197632,0
1A_020,8,1,1,1,87,1,0,1,1,0,0,-1,0,-1,-1,0,0.454581937,0
1A_020,8,1,1,1,88,1,0,1,-1,1,0,0,0,0,-1,-1,0.454817522,0
1A_020,8,1,1,1,89,1,1,0,-1,-1,1,0,0,0,0,-1,0.486776475,0
1A_020,8,1,1,1,90,0,1,0,1,-1,-1,1,0,0,0,0,0.593663135,0
1A_020,8,1,1,1,91,0,0,0,0,1,-1,-1,-1,0,0,0,0.58350816,1
1A_020,8,1,1,1,92,1,1,1,0,0,1,-1,1,-1,0,0,0.46875019,1
1A_020,8,1,1,1,93,0,0,0,1,0,0,1,0,1,-1,0,0.369442901,1
1A_020,8,1,1,1,94,1,1,1,0,1,0,0,1,0,1,-1,0.45795994,1
1A_020,8,1,1,1,95,0,0,0,1,0,1,0,0,1,0,1,0.560246416,1
1A_020,8,1,1,1,96,0,0,0,0,1,0,1,1,0,1,0,0.588771021,1
1A_020,8,1,1,1,97,0,0,0,0,0,1,0,1,1,0,1,0.525655011,1
1A_020,8,1,1,1,98,0,0,0,0,0,0,1,1,1,1,0,0.56291092,1
1A_020,8,1,1,1,99,0,0,0,0,0,0,0,1,1,1,1,0.494764616,1
1A_020,8,1,1,1,100,0,0,0,0,0,0,0,1,1,1,1,0.53678071,1
1A_020,8,1,1,1,101,1,1,1,0,0,0,0,1,1,1,1,0.534955587,1
1A_020,8,1,1,1,102,0,0,0,1,0,0,0,0,1,1,1,0.393520883,1
1A_020,8,1,1,1,103,0,0,0,0,1,0,0,1,0,1,1,0.544986387,1
1A_020,8,1,1,1,104,1,1,1,0,0,1,0,1,1,0,1,0.413572505,1
1A_020,8,1,1,1,105,0,1,1,1,0,0,1,0,1,1,0,0.479762663,1
1A_020,8,1,1,1,106,0,1,0,0,1,0,0,-1,0,1,1,0.43452668,0
1A_020,8,1,1,1,107,1,0,1,0,0,1,0,-1,-1,0,1,0.904390921,0
1A_020,8,1,1,1,108,1,0,1,-1,0,0,1,0,-1,-1,0,0.645831161,0
1A_020,8,1,1,1,109,1,0,1,-1,-1,0,0,0,0,-1,-1,0.633078772,0
1A_020,8,1,1,1,110,1,0,1,-1,-1,-1,0,0,0,0,-1,0.648752125,0
1A_020,8,1,1,1,111,1,0,1,-1,-1,-1,-1,0,0,0,0,0.613058262,0
1A_020,8,1,1,1,112,0,0,1,-1,-1,-1,-1,0,0,0,0,0.768682044,0
1A_020,8,1,1,1,113,1,0,1,0,-1,-1,-1,1,0,0,0,0.581566372,0
1A_020,8,1,1,1,114,1,0,1,-1,0,-1,-1,0,1,0,0,0.627579918,0
1A_020,8,1,1,1,115,1,0,1,-1,-1,0,-1,0,0,1,0,0.580819998,0
1A_020,8,1,1,1,116,1,0,1,-1,-1,-1,0,0,0,0,1,0.643265142,0
1A_020,8,1,1,1,117,1,0,1,-1,-1,-1,-1,0,0,0,0,0.612308403,0
1A_020,8,1,1,1,118,1,0,1,-1,-1,-1,-1,0,0,0,0,0.562830812,0
1A_020,8,1,1,1,119,1,0,1,-1,-1,-1,-1,0,0,0,0,0.574854841,0
1A_020,8,1,1,1,120,1,0,1,-1,-1,-1,-1,0,0,0,0,0.595177852,0
1A_020,8,1,1,1,121,1,0,1,-1,-1,-1,-1,0,0,0,0,0.549508102,0
1A_020,8,1,1,1,122,1,0,1,-1,-1,-1,-1,0,0,0,0,0.535704717,0
1A_020,8,1,1,1,123,1,0,1,-1,-1,-1,-1,0,0,0,0,0.632391601,0
1A_020,8,1,1,1,124,1,0,1,-1,-1,-1,-1,0,0,0,0,0.611258558,0
1A_020,8,1,1,1,125,1,0,1,-1,-1,-1,-1,0,0,0,0,0.595528487,0
1A_020,8,1,1,1,126,0,0,0,-1,-1,-1,-1,0,0,0,0,0.56180342,1
1A_020,8,1,1,1,127,0,0,0,0,-1,-1,-1,1,0,0,0,0.589367782,1
1A_020,8,1,1,1,128,1,1,1,0,0,-1,-1,1,1,0,0,0.655985207,1
1A_020,8,1,1,1,129,1,1,1,1,0,0,-1,0,1,1,0,0.674805165,1
1A_020,8,1,1,1,130,1,1,1,1,1,0,0,0,0,1,1,0.662413742,1
1A_020,8,1,1,1,131,0,1,1,1,1,1,0,0,0,0,1,0.609350257,1
1A_020,8,1,1,1,132,1,1,1,0,1,1,1,-1,0,0,0,0.978051446,1
1A_020,8,1,1,1,133,1,1,1,1,0,1,1,0,-1,0,0,0.667820126,1
1A_020,8,1,1,1,134,0,1,1,1,1,0,1,0,0,-1,0,0.612556626,1
1A_020,8,1,1,1,135,1,0,0,0,1,1,0,-1,0,0,-1,0.854621842,1
1A_020,8,1,1,1,136,0,0,0,-1,0,1,1,0,-1,0,0,1.152448101,1
1A_020,8,1,1,1,137,1,1,1,0,-1,0,1,1,0,-1,0,0.715323524,1
1A_020,8,1,1,1,138,0,1,1,1,0,-1,0,0,1,0,-1,0.758393713,1
1A_020,8,1,1,1,139,0,0,0,0,1,0,-1,-1,0,1,0,0.834490231,1
1A_020,8,1,1,1,140,0,1,1,0,0,1,0,1,-1,0,1,0.851804811,1
1A_020,8,1,1,1,141,0,0,0,0,0,0,1,-1,1,-1,0,1.159881315,1
1A_020,8,1,1,1,142,0,0,0,0,0,0,0,1,-1,1,-1,0.537387012,1
1A_020,8,1,1,1,143,1,1,1,0,0,0,0,1,1,-1,1,0.608448507,1
1A_020,8,1,1,1,144,1,1,1,1,0,0,0,0,1,1,-1,0.603731515,1
1A_020,8,1,1,1,145,1,1,1,1,1,0,0,0,0,1,1,0.628253739,1
1A_020,8,1,1,1,146,1,1,1,1,1,1,0,0,0,0,1,0.625391959,1
1A_020,8,1,1,1,147,1,1,1,1,1,1,1,0,0,0,0,0.617836363,1
1A_020,8,1,1,1,148,0,1,1,1,1,1,1,0,0,0,0,0.743889485,1
1A_020,8,1,1,1,149,0,0,0,0,1,1,1,-1,0,0,0,0.608671253,1
1A_020,8,1,1,1,150,1,0,0,0,0,1,1,1,-1,0,0,0.574151419,1
1A_020,8,1,1,1,151,0,0,0,-1,0,0,1,0,1,-1,0,0.61968116,1
1A_020,8,1,1,1,152,0,0,0,0,-1,0,0,1,0,1,-1,0.607540945,1
1A_020,8,1,1,1,153,0,1,1,0,0,-1,0,1,1,0,1,0.644856252,1
1A_020,8,1,1,1,154,1,1,1,0,0,0,-1,-1,1,1,0,0.604401593,1
1A_020,8,1,1,1,155,0,0,0,1,0,0,0,0,-1,1,1,0.735758965,1
1A_020,8,1,1,1,156,1,1,1,0,1,0,0,1,0,-1,1,1.004002301,1
1A_020,8,1,1,1,157,1,1,1,1,0,1,0,0,1,0,-1,0.59270682,1
1A_020,8,1,1,1,158,1,1,1,1,1,0,1,0,0,1,0,0.593795501,1
1A_020,8,1,1,1,159,1,1,1,1,1,1,0,0,0,0,1,0.70248464,1
1A_020,8,1,1,1,160,0,1,1,1,1,1,1,0,0,0,0,0.661400853,1
1A_027,9,1,1,1,1,0,1,1,NaN,NaN,NaN,NaN,NaN,NaN,NaN,NaN,0.963889478,1
1A_027,9,1,1,1,2,0,1,1,0,NaN,NaN,NaN,-1,NaN,NaN,NaN,0.826327283,1
1A_027,9,1,1,1,3,1,1,1,0,0,NaN,NaN,-1,-1,NaN,NaN,0.579857652,1
1A_027,9,1,1,1,4,1,1,1,1,0,0,NaN,0,-1,-1,NaN,0.62583707,1
1A_027,9,1,1,1,5,1,1,1,1,1,0,0,0,0,-1,-1,0.496050145,1
1A_027,9,1,1,1,6,1,1,1,1,1,1,0,0,0,0,-1,0.935855535,1
1A_027,9,1,1,1,7,1,1,1,1,1,1,1,0,0,0,0,0.811847195,1
1A_027,9,1,1,1,8,1,1,1,1,1,1,1,0,0,0,0,0.516819035,1
1A_027,9,1,1,1,9,1,1,1,1,1,1,1,0,0,0,0,0.800589163,1
1A_027,9,1,1,1,10,0,1,1,1,1,1,1,0,0,0,0,0.591464877,1
1A_027,9,1,1,1,11,1,1,1,0,1,1,1,-1,0,0,0,0.598882675,1
1A_027,9,1,1,1,12,1,1,1,1,0,1,1,0,-1,0,0,0.682764921,1
1A_027,9,1,1,1,13,1,1,1,1,1,0,1,0,0,-1,0,0.586492689,1
1A_027,9,1,1,1,14,1,1,1,1,1,1,0,0,0,0,-1,0.951112599,1
1A_027,9,1,1,1,15,1,1,1,1,1,1,1,0,0,0,0,0.516771034,1
1A_027,9,1,1,1,16,0,1,1,1,1,1,1,0,0,0,0,0.544639768,1
1A_027,9,1,1,1,17,1,1,1,0,1,1,1,-1,0,0,0,0.531827638,1
1A_027,9,1,1,1,18,1,1,1,1,0,1,1,0,-1,0,0,0.711035066,1
1A_027,9,1,1,1,19,1,1,1,1,1,0,1,0,0,-1,0,0.540366962,1
1A_027,9,1,1,1,20,0,1,1,1,1,1,0,0,0,0,-1,0.5312311,1
1A_027,9,1,1,1,21,1,1,1,0,1,1,1,-1,0,0,0,0.597713731,1
1A_027,9,1,1,1,22,1,1,1,1,0,1,1,0,-1,0,0,0.629061028,1
1A_027,9,1,1,1,23,0,1,1,1,1,0,1,0,0,-1,0,0.701920575,1
1A_027,9,1,1,1,24,0,1,1,0,1,1,0,-1,0,0,-1,0.49699573,1
1A_027,9,1,1,1,25,1,1,1,0,0,1,1,-1,-1,0,0,0.574430722,1
1A_027,9,1,1,1,26,1,1,1,1,0,0,1,0,-1,-1,0,0.512871991,1
1A_027,9,1,1,1,27,1,1,1,1,1,0,0,0,0,-1,-1,0.550139675,1
1A_027,9,1,1,1,28,1,1,1,1,1,1,0,0,0,0,-1,0.678283023,1
1A_027,9,1,1,1,29,0,1,1,1,1,1,1,0,0,0,0,0.59980182,1
1A_027,9,1,1,1,30,1,1,1,0,1,1,1,-1,0,0,0,0.571876034,1
1A_027,9,1,1,1,31,0,1,1,1,0,1,1,0,-1,0,0,0.559292039,1
1A_027,9,1,1,1,32,1,1,1,0,1,0,1,-1,0,-1,0,0.547896061,1
1A_027,9,1,1,1,33,1,1,1,1,0,1,0,0,-1,0,-1,0.494463033,1
1A_027,9,1,1,1,34,1,1,1,1,1,0,1,0,0,-1,0,0.576527674,1
1A_027,9,1,1,1,35,0,1,1,1,1,1,0,0,0,0,-1,0.652262218,1
1A_027,9,1,1,1,36,1,1,1,0,1,1,1,-1,0,0,0,0.542667273,1
1A_027,9,1,1,1,37,1,1,1,1,0,1,1,0,-1,0,0,0.560083102,1
1A_027,9,1,1,1,38,1,1,1,1,1,0,1,0,0,-1,0,0.592636688,1
1A_027,9,1,1,1,39,1,1,1,1,1,1,0,0,0,0,-1,0.518843844,1
1A_027,9,1,1,1,40,0,1,1,1,1,1,1,0,0,0,0,0.685452428,1
1A_027,9,1,1,1,41,1,1,1,0,1,1,1,-1,0,0,0,0.511940146,1
1A_027,9,1,1,1,42,0,1,1,1,0,1,1,0,-1,0,0,0.664339175,1
1A_027,9,1,1,1,43,1,1,1,0,1,0,1,-1,0,-1,0,0.624588193,1
1A_027,9,1,1,1,44,1,1,1,1,0,1,0,0,-1,0,-1,0.576364773,1
1A_027,9,1,1,1,45,0,1,1,1,1,0,1,0,0,-1,0,0.688639793,1
1A_027,9,1,1,1,46,1,1,1,0,1,1,0,-1,0,0,-1,0.570415842,1
1A_027,9,1,1,1,47,1,1,1,1,0,1,1,0,-1,0,0,0.555000767,1
1A_027,9,1,1,1,48,1,1,1,1,1,0,1,0,0,-1,0,0.562204885,1
1A_027,9,1,1,1,49,1,1,1,1,1,1,0,0,0,0,-1,0.56164911,1
1A_027,9,1,1,1,50,0,1,1,1,1,1,1,0,0,0,0,0.582111567,1
1A_027,9,1,1,1,51,1,1,1,0,1,1,1,-1,0,0,0,0.501625128,1
1A_027,9,1,1,1,52,1,1,1,1,0,1,1,0,-1,0,0,0.563098949,1
1A_027,9,1,1,1,53,1,1,1,1,1,0,1,0,0,-1,0,0.511902895,1
1A_027,9,1,1,1,54,0,1,1,1,1,1,0,0,0,0,-1,0.653864314,1
1A_027,9,1,1,1,55,1,1,1,0,1,1,1,-1,0,0,0,0.654672314,1
1A_027,9,1,1,1,56,0,1,0,1,0,1,1,0,-1,0,0,0.943322694,0
1A_027,9,1,1,1,57,1,1,0,0,1,0,1,-1,0,-1,0,0.54762726,0
1A_027,9,1,1,1,58,0,1,0,1,0,1,0,0,-1,0,-1,0.668466331,0
1A_027,9,1,1,1,59,0,1,0,0,1,0,1,-1,0,-1,0,0.540696857,0
1A_027,9,1,1,1,60,0,1,0,0,0,1,0,-1,-1,0,-1,0.59461359,0
1A_027,9,1,1,1,61,0,1,0,0,0,0,1,-1,-1,-1,0,0.632670463,0
1A_027,9,1,1,1,62,0,1,0,0,0,0,0,-1,-1,-1,-1,0.698056735,0
1A_027,9,1,1,1,63,0,1,0,0,0,0,0,-1,-1,-1,-1,0.586421104,0
1A_027,9,1,1,1,64,0,1,0,0,0,0,0,-1,-1,-1,-1,0.903013095,0
1A_027,9,1,1,1,65,0,1,0,0,0,0,0,-1,-1,-1,-1,0.604562391,0
1A_027,9,1,1,1,66,0,1,0,0,0,0,0,-1,-1,-1,-1,0.71475613,0
1A_027,9,1,1,1,67,1,0,1,0,0,0,0,-1,-1,-1,-1,0.548109437,0
1A_027,9,1,1,1,68,1,0,1,-1,0,0,0,0,-1,-1,-1,0.617953481,0
1A_027,9,1,1,1,69,1,0,1,-1,-1,0,0,0,0,-1,-1,0.529151724,0
1A_027,9,1,1,1,70,0,0,1,-1,-1,-1,0,0,0,0,-1,0.542052798,0
1A_027,9,1,1,1,71,0,0,0,0,-1,-1,-1,1,0,0,0,0.489605147,1
1A_027,9,1,1,1,72,1,0,0,0,0,-1,-1,1,1,0,0,0.57873957,1
1A_027,9,1,1,1,73,1,0,0,-1,0,0,-1,0,1,1,0,0.655466944,1
1A_027,9,1,1,1,74,0,0,0,-1,-1,0,0,0,0,1,1,0.514375208,1
1A_027,9,1,1,1,75,1,0,0,0,-1,-1,0,1,0,0,1,0.442900662,1
1A_027,9,1,1,1,76,0,0,0,-1,0,-1,-1,0,1,0,0,0.818245572,1
1A_027,9,1,1,1,77,0,0,0,0,-1,0,-1,1,0,1,0,0.756906332,1
1A_027,9,1,1,1,78,0,0,0,0,0,-1,0,1,1,0,1,0.676056117,1
1A_027,9,1,1,1,79,0,0,0,0,0,0,-1,1,1,1,0,0.651769152,1
1A_027,9,1,1,1,80,1,1,1,0,0,0,0,1,1,1,1,0.528615838,1
1A_027,9,1,1,1,81,1,1,1,1,0,0,0,0,1,1,1,0.912009122,1
1A_027,9,1,1,1,82,1,1,1,1,1,0,0,0,0,1,1,0.496209291,1
1A_027,9,1,1,1,83,1,1,1,1,1,1,0,0,0,0,1,0.873854441,1
1A_027,9,1,1,1,84,1,1,1,1,1,1,1,0,0,0,0,0.556523302,1
1A_027,9,1,1,1,85,1,1,1,1,1,1,1,0,0,0,0,0.576776811,1
1A_027,9,1,1,1,86,1,1,1,1,1,1,1,0,0,0,0,0.603404867,1
1A_027,9,1,1,1,87,0,1,1,1,1,1,1,0,0,0,0,1.016442235,1
1A_027,9,1,1,1,88,0,1,1,0,1,1,1,-1,0,0,0,0.677549776,1
1A_027,9,1,1,1,89,1,1,1,0,0,1,1,-1,-1,0,0,0.702523503,1
1A_027,9,1,1,1,90,1,1,1,1,0,0,1,0,-1,-1,0,0.661205965,1
1A_027,9,1,1,1,91,0,1,0,1,1,0,0,0,0,-1,-1,0.655296432,0
1A_027,9,1,1,1,92,0,1,0,0,1,1,0,-1,0,0,-1,0.778581137,0
1A_027,9,1,1,1,93,0,1,0,0,0,1,1,-1,-1,0,0,0.500172981,0
1A_027,9,1,1,1,94,1,1,0,0,0,0,1,-1,-1,-1,0,0.629396908,0
1A_027,9,1,1,1,95,0,1,0,1,0,0,0,0,-1,-1,-1,0.67939826,0
1A_027,9,1,1,1,96,0,1,0,0,1,0,0,-1,0,-1,-1,0.83278487,0
1A_027,9,1,1,1,97,0,1,0,0,0,1,0,-1,-1,0,-1,0.795992792,0
1A_027,9,1,1,1,98,0,1,0,0,0,0,1,-1,-1,-1,0,0.553330679,0
1A_027,9,1,1,1,99,0,1,0,0,0,0,0,-1,-1,-1,-1,0.61123666,0
1A_027,9,1,1,1,100,0,0,1,0,0,0,0,-1,-1,-1,-1,0.619060172,0
1A_027,9,1,1,1,101,1,0,1,0,0,0,0,1,-1,-1,-1,0.514148314,0
1A_027,9,1,1,1,102,1,0,1,-1,0,0,0,0,1,-1,-1,0.691218288,0
1A_027,9,1,1,1,103,1,0,1,-1,-1,0,0,0,0,1,-1,0.588192538,0
1A_027,9,1,1,1,104,1,0,1,-1,-1,-1,0,0,0,0,1,0.60286066,0
1A_027,9,1,1,1,105,1,0,1,-1,-1,-1,-1,0,0,0,0,0.560228903,0
1A_027,9,1,1,1,106,0,0,0,-1,-1,-1,-1,0,0,0,0,0.598117773,1
1A_027,9,1,1,1,107,0,0,0,0,-1,-1,-1,1,0,0,0,0.80108325,1
1A_027,9,1,1,1,108,0,0,0,0,0,-1,-1,1,1,0,0,0.581043781,1
1A_027,9,1,1,1,109,0,0,0,0,0,0,-1,1,1,1,0,0.583079692,1
1A_027,9,1,1,1,110,1,1,1,0,0,0,0,1,1,1,1,0.652586187,1
1A_027,9,1,1,1,111,1,1,1,1,0,0,0,0,1,1,1,0.60607106,1
1A_027,9,1,1,1,112,1,1,1,1,1,0,0,0,0,1,1,0.622358553,1
1A_027,9,1,1,1,113,1,1,1,1,1,1,0,0,0,0,1,0.613915335,1
1A_027,9,1,1,1,114,1,1,1,1,1,1,1,0,0,0,0,0.678522245,1
1A_027,9,1,1,1,115,1,1,1,1,1,1,1,0,0,0,0,0.742757169,1
1A_027,9,1,1,1,116,1,1,1,1,1,1,1,0,0,0,0,0.636722613,1
1A_027,9,1,1,1,117,1,1,1,1,1,1,1,0,0,0,0,0.691663251,1
1A_027,9,1,1,1,118,1,1,1,1,1,1,1,0,0,0,0,0.712513974,1
1A_027,9,1,1,1,119,1,1,1,1,1,1,1,0,0,0,0,0.778333321,1
1A_027,9,1,1,1,120,1,1,1,1,1,1,1,0,0,0,0,0.567947493,1
1A_027,9,1,1,1,121,1,1,1,1,1,1,1,0,0,0,0,0.752830295,1
1A_027,9,1,1,1,122,0,1,1,1,1,1,1,0,0,0,0,0.674474619,1
1A_027,9,1,1,1,123,1,1,1,0,1,1,1,-1,0,0,0,0.742032953,1
1A_027,9,1,1,1,124,1,1,1,1,0,1,1,0,-1,0,0,0.633910936,1
1A_027,9,1,1,1,125,1,1,1,1,1,0,1,0,0,-1,0,0.580208396,1
1A_027,9,1,1,1,126,1,1,0,1,1,1,0,0,0,0,-1,0.515356451,0
1A_027,9,1,1,1,127,1,1,0,1,1,1,1,0,0,0,0,0.691950494,0
1A_027,9,1,1,1,128,0,1,0,1,1,1,1,0,0,0,0,0.761924853,0
1A_027,9,1,1,1,129,0,1,0,0,1,1,1,-1,0,0,0,0.559894667,0
1A_027,9,1,1,1,130,1,1,0,0,0,1,1,-1,-1,0,0,0.602692101,0
1A_027,9,1,1,1,131,0,1,0,1,0,0,1,0,-1,-1,0,0.527568051,0
1A_027,9,1,1,1,132,0,1,0,0,1,0,0,-1,0,-1,-1,0.632247143,0
1A_027,9,1,1,1,133,0,1,0,0,0,1,0,-1,-1,0,-1,0.791494959,0
1A_027,9,1,1,1,134,1,0,1,0,0,0,1,-1,-1,-1,0,0.67048478,0
1A_027,9,1,1,1,135,0,0,1,-1,0,0,0,0,-1,-1,-1,0.822529175,0
1A_027,9,1,1,1,136,0,0,1,0,-1,0,0,1,0,-1,-1,0.578337039,0
1A_027,9,1,1,1,137,1,0,1,0,0,-1,0,1,1,0,-1,0.541730719,0
1A_027,9,1,1,1,138,0,0,1,-1,0,0,-1,0,1,1,0,0.633376658,0
1A_027,9,1,1,1,139,1,0,1,0,-1,0,0,1,0,1,1,0.620494536,0
1A_027,9,1,1,1,140,1,0,1,-1,0,-1,0,0,1,0,1,0.720852156,0
1A_027,9,1,1,1,141,1,0,1,-1,-1,0,-1,0,0,1,0,0.547346548,0
1A_027,9,1,1,1,142,1,0,1,-1,-1,-1,0,0,0,0,1,0.596970152,0
1A_027,9,1,1,1,143,1,0,1,-1,-1,-1,-1,0,0,0,0,0.529498521,0
1A_027,9,1,1,1,144,0,0,1,-1,-1,-1,-1,0,0,0,0,0.618323497,0
1A_027,9,1,1,1,145,1,0,1,0,-1,-1,-1,1,0,0,0,0.689980432,0
1A_027,9,1,1,1,146,0,0,1,-1,0,-1,-1,0,1,0,0,0.686550822,0
1A_027,9,1,1,1,147,1,0,1,0,-1,0,-1,1,0,1,0,0.481281298,0
1A_027,9,1,1,1,148,1,0,1,-1,0,-1,0,0,1,0,1,0.609334858,0
1A_027,9,1,1,1,149,1,0,1,-1,-1,0,-1,0,0,1,0,0.742785196,0
1A_027,9,1,1,1,150,1,0,1,-1,-1,-1,0,0,0,0,1,0.778522152,0
1A_027,9,1,1,1,151,1,0,1,-1,-1,-1,-1,0,0,0,0,0.618436826,0
1A_027,9,1,1,1,152,1,0,1,-1,-1,-1,-1,0,0,0,0,0.715428868,0
1A_027,9,1,1,1,153,0,0,1,-1,-1,-1,-1,0,0,0,0,0.658639392,0
1A_027,9,1,1,1,154,0,0,1,0,-1,-1,-1,1,0,0,0,0.623702326,0
1A_027,9,1,1,1,155,0,0,1,0,0,-1,-1,1,1,0,0,0.694340157,0
1A_027,9,1,1,1,156,0,1,0,0,0,0,-1,1,1,1,0,0.660192844,0
1A_027,9,1,1,1,157,1,0,1,0,0,0,0,-1,1,1,1,0.693663042,0
1A_027,9,1,1,1,158,1,0,1,-1,0,0,0,0,-1,1,1,0.638420073,0
1A_027,9,1,1,1,159,0,0,1,-1,-1,0,0,0,0,-1,1,0.685362855,0
1A_027,9,1,1,1,160,1,0,1,0,-1,-1,0,1,0,0,-1,1.166225369,0
1A_028,10,1,1,1,1,1,0,1,NaN,NaN,NaN,NaN,NaN,NaN,NaN,NaN,0.845546529,0
1A_028,10,1,1,1,2,1,0,1,-1,NaN,NaN,NaN,0,NaN,NaN,NaN,0.56528494,0
1A_028,10,1,1,1,3,0,0,1,-1,-1,NaN,NaN,0,0,NaN,NaN,0.518678373,0
1A_028,10,1,1,1,4,0,0,1,0,-1,-1,NaN,1,0,0,NaN,0.49814744,0
1A_028,10,1,1,1,5,0,1,0,0,0,-1,-1,1,1,0,0,0.992636899,0
1A_028,10,1,1,1,6,1,1,0,0,0,0,-1,-1,1,1,0,0.749850743,0
1A_028,10,1,1,1,7,0,1,0,1,0,0,0,0,-1,1,1,0.480401593,0
1A_028,10,1,1,1,8,1,0,1,0,1,0,0,-1,0,-1,1,0.811572306,0
1A_028,10,1,1,1,9,1,0,1,-1,0,1,0,0,-1,0,-1,0.642641809,0
1A_028,10,1,1,1,10,1,1,0,-1,-1,0,1,0,0,-1,0,0.567517706,0
1A_028,10,1,1,1,11,1,1,0,1,-1,-1,0,0,0,0,-1,0.612503391,0
1A_028,10,1,1,1,12,0,1,0,1,1,-1,-1,0,0,0,0,0.609902324,0
1A_028,10,1,1,1,13,1,0,1,0,1,1,-1,-1,0,0,0,0.516462341,0
1A_028,10,1,1,1,14,1,0,1,-1,0,1,1,0,-1,0,0,0.518364083,0
1A_028,10,1,1,1,15,0,1,0,-1,-1,0,1,0,0,-1,0,0.452722162,0
1A_028,10,1,1,1,16,1,0,1,0,-1,-1,0,-1,0,0,-1,0.487949777,0
1A_028,10,1,1,1,17,1,0,1,-1,0,-1,-1,0,-1,0,0,0.572231019,0
1A_028,10,1,1,1,18,0,0,1,-1,-1,0,-1,0,0,-1,0,0.797731798,0
1A_028,10,1,1,1,19,1,1,0,0,-1,-1,0,1,0,0,-1,0.696819429,0
1A_028,10,1,1,1,20,1,0,1,1,0,-1,-1,0,1,0,0,0.698396525,0
1A_028,10,1,1,1,21,0,1,0,-1,1,0,-1,0,0,1,0,0.759373534,0
1A_028,10,1,1,1,22,0,1,0,0,-1,1,0,-1,0,0,1,0.389424388,0
1A_028,10,1,1,1,23,0,1,0,0,0,-1,1,-1,-1,0,0,0.653127376,0
1A_028,10,1,1,1,24,1,0,1,0,0,0,-1,-1,-1,-1,0,0.455985434,0
1A_028,10,1,1,1,25,1,0,1,-1,0,0,0,0,-1,-1,-1,0.571566116,0
1A_028,10,1,1,1,26,1,0,1,-1,-1,0,0,0,0,-1,-1,0.80251947,0
1A_028,10,1,1,1,27,0,1,0,-1,-1,-1,0,0,0,0,-1,0.595736615,0
1A_028,10,1,1,1,28,0,0,1,0,-1,-1,-1,-1,0,0,0,0.720401881,0
1A_028,10,1,1,1,29,1,0,1,0,0,-1,-1,1,-1,0,0,0.847518638,0
1A_028,10,1,1,1,30,0,1,0,-1,0,0,-1,0,1,-1,0,0.410796644,0
1A_028,10,1,1,1,31,1,0,1,0,-1,0,0,-1,0,1,-1,0.609858241,0
1A_028,10,1,1,1,32,1,0,1,-1,0,-1,0,0,-1,0,1,0.413262084,0
1A_028,10,1,1,1,33,1,0,1,-1,-1,0,-1,0,0,-1,0,0.412753203,0
1A_028,10,1,1,1,34,1,1,0,-1,-1,-1,0,0,0,0,-1,0.408116965,0
1A_028,10,1,1,1,35,1,0,1,1,-1,-1,-1,0,0,0,0,0.46783081,0
1A_028,10,1,1,1,36,1,1,0,-1,1,-1,-1,0,0,0,0,0.485887353,0
1A_028,10,1,1,1,37,1,1,0,1,-1,1,-1,0,0,0,0,0.424882107,0
1A_028,10,1,1,1,38,1,1,0,1,1,-1,1,0,0,0,0,0.390636596,0
1A_028,10,1,1,1,39,1,0,1,1,1,1,-1,0,0,0,0,0.453070753,0
1A_028,10,1,1,1,40,1,0,1,-1,1,1,1,0,0,0,0,0.627491446,0
1A_028,10,1,1,1,41,0,1,0,-1,-1,1,1,0,0,0,0,0.459180962,0
1A_028,10,1,1,1,42,0,1,0,0,-1,-1,1,-1,0,0,0,0.36636557,0
1A_028,10,1,1,1,43,1,0,1,0,0,-1,-1,-1,-1,0,0,0.610018801,0
1A_028,10,1,1,1,44,1,0,1,-1,0,0,-1,0,-1,-1,0,0.507502037,0
1A_028,10,1,1,1,45,0,1,0,-1,-1,0,0,0,0,-1,-1,0.399361898,0
1A_028,10,1,1,1,46,1,0,1,0,-1,-1,0,-1,0,0,-1,0.581922955,0
1A_028,10,1,1,1,47,1,0,1,-1,0,-1,-1,0,-1,0,0,0.354617344,0
1A_028,10,1,1,1,48,0,1,0,-1,-1,0,-1,0,0,-1,0,0.390190252,0
1A_028,10,1,1,1,49,0,1,0,0,-1,-1,0,-1,0,0,-1,0.733690868,0
1A_028,10,1,1,1,50,0,1,0,0,0,-1,-1,-1,-1,0,0,0.463932347,0
1A_028,10,1,1,1,51,1,0,1,0,0,0,-1,-1,-1,-1,0,0.966061428,0
1A_028,10,1,1,1,52,1,0,1,-1,0,0,0,0,-1,-1,-1,0.390732542,0
1A_028,10,1,1,1,53,1,0,1,-1,-1,0,0,0,0,-1,-1,0.400939683,0
1A_028,10,1,1,1,54,0,1,0,-1,-1,-1,0,0,0,0,-1,0.385850177,0
1A_028,10,1,1,1,55,1,0,1,0,-1,-1,-1,-1,0,0,0,0.661627358,0
1A_028,10,1,1,1,56,0,1,1,-1,0,-1,-1,0,-1,0,0,0.408109181,1
1A_028,10,1,1,1,57,0,0,0,0,-1,0,-1,-1,0,-1,0,1.071298982,1
1A_028,10,1,1,1,58,0,0,0,0,0,-1,0,1,-1,0,-1,0.976104174,1
1A_028,10,1,1,1,59,1,1,1,0,0,0,-1,1,1,-1,0,0.679822003,1
1A_028,10,1,1,1,60,1,1,1,1,0,0,0,0,1,1,-1,0.969363216,1
1A_028,10,1,1,1,61,1,1,1,1,1,0,0,0,0,1,1,1.047171173,1
1A_028,10,1,1,1,62,0,1,1,1,1,1,0,0,0,0,1,0.637990715,1
1A_028,10,1,1,1,63,1,1,1,0,1,1,1,-1,0,0,0,1.287728929,1
1A_028,10,1,1,1,64,0,0,0,1,0,1,1,0,-1,0,0,1.013563257,1
1A_028,10,1,1,1,65,1,1,1,0,1,0,1,1,0,-1,0,0.881005102,1
1A_028,10,1,1,1,66,1,1,1,1,0,1,0,0,1,0,-1,0.730038243,1
1A_028,10,1,1,1,67,1,1,1,1,1,0,1,0,0,1,0,0.353804222,1
1A_028,10,1,1,1,68,0,0,0,1,1,1,0,0,0,0,1,0.635101701,1
1A_028,10,1,1,1,69,1,1,1,0,1,1,1,1,0,0,0,1.033554563,1
1A_028,10,1,1,1,70,0,0,0,1,0,1,1,0,1,0,0,0.438286334,1
1A_028,10,1,1,1,71,0,1,0,0,1,0,1,1,0,1,0,0.631900387,0
1A_028,10,1,1,1,72,0,1,0,0,0,1,0,-1,1,0,1,0.672874218,0
1A_028,10,1,1,1,73,1,0,1,0,0,0,1,-1,-1,1,0,0.750561976,0
1A_028,10,1,1,1,74,1,0,1,-1,0,0,0,0,-1,-1,1,0.658113206,0
1A_028,10,1,1,1,75,0,0,1,-1,-1,0,0,0,0,-1,-1,0.665544561,0
1A_028,10,1,1,1,76,1,0,1,0,-1,-1,0,1,0,0,-1,0.94283798,0
1A_028,10,1,1,1,77,0,0,1,-1,0,-1,-1,0,1,0,0,0.793430438,0
1A_028,10,1,1,1,78,0,0,1,0,-1,0,-1,1,0,1,0,0.90116488,0
1A_028,10,1,1,1,79,1,1,0,0,0,-1,0,1,1,0,1,0.888286554,0
1A_028,10,1,1,1,80,0,1,0,1,0,0,-1,0,1,1,0,0.683181187,0
1A_028,10,1,1,1,81,0,1,0,0,1,0,0,-1,0,1,1,1.440467741,0
1A_028,10,1,1,1,82,0,1,0,0,0,1,0,-1,-1,0,1,0.630486893,0
1A_028,10,1,1,1,83,0,1,0,0,0,0,1,-1,-1,-1,0,0.980980623,0
1A_028,10,1,1,1,84,0,0,0,0,0,0,0,-1,-1,-1,-1,0,0
1A_028,10,1,1,1,85,0,1,0,NaN,0,0,0,NaN,-1,-1,-1,0.533622775,0
1A_028,10,1,1,1,86,0,0,1,0,NaN,0,0,-1,NaN,-1,-1,0.546468055,0
1A_028,10,1,1,1,87,0,1,0,0,0,NaN,0,1,-1,NaN,-1,0.543114058,0
1A_028,10,1,1,1,88,1,0,1,0,0,0,NaN,-1,1,-1,NaN,0.72564951,0
1A_028,10,1,1,1,89,0,0,1,-1,0,0,0,0,-1,1,-1,0.491454038,0
1A_028,10,1,1,1,90,0,1,0,0,-1,0,0,1,0,-1,1,0.759643866,0
1A_028,10,1,1,1,91,0,0,0,0,0,-1,0,-1,1,0,-1,0.679802435,1
1A_028,10,1,1,1,92,1,1,1,0,0,0,-1,1,-1,1,0,0.508151685,1
1A_028,10,1,1,1,93,0,0,0,1,0,0,0,0,1,-1,1,0.380951632,1
1A_028,10,1,1,1,94,1,1,1,0,1,0,0,1,0,1,-1,0.597177774,1
1A_028,10,1,1,1,95,1,1,1,1,0,1,0,0,1,0,1,0.638455411,1
1A_028,10,1,1,1,96,0,1,1,1,1,0,1,0,0,1,0,0.534323409,1
1A_028,10,1,1,1,97,1,1,1,0,1,1,0,-1,0,0,1,0.939697635,1
1A_028,10,1,1,1,98,1,1,1,1,0,1,1,0,-1,0,0,0.554114489,1
1A_028,10,1,1,1,99,1,1,1,1,1,0,1,0,0,-1,0,0.571845064,1
1A_028,10,1,1,1,100,1,1,1,1,1,1,0,0,0,0,-1,0.810550593,1
1A_028,10,1,1,1,101,0,1,1,1,1,1,1,0,0,0,0,0.624632779,1
1A_028,10,1,1,1,102,0,0,0,0,1,1,1,-1,0,0,0,0.908948898,1
1A_028,10,1,1,1,103,0,0,0,0,0,1,1,1,-1,0,0,1.101719395,1
1A_028,10,1,1,1,104,0,0,0,0,0,0,1,1,1,-1,0,0.542304473,1
1A_028,10,1,1,1,105,1,1,1,0,0,0,0,1,1,1,-1,0.697840295,1
1A_028,10,1,1,1,106,1,0,1,1,0,0,0,0,1,1,1,0.837993617,0
1A_028,10,1,1,1,107,1,0,1,-1,1,0,0,0,0,1,1,0.723428395,0
1A_028,10,1,1,1,108,1,0,1,-1,-1,1,0,0,0,0,1,0.697648903,0
1A_028,10,1,1,1,109,0,0,1,-1,-1,-1,1,0,0,0,0,0.405797501,0
1A_028,10,1,1,1,110,0,1,0,0,-1,-1,-1,1,0,0,0,0.866610131,0
1A_028,10,1,1,1,111,0,1,0,0,0,-1,-1,-1,1,0,0,0.368012142,0
1A_028,10,1,1,1,112,1,0,1,0,0,0,-1,-1,-1,1,0,0.462585341,0
1A_028,10,1,1,1,113,1,0,1,-1,0,0,0,0,-1,-1,1,0.410798523,0
1A_028,10,1,1,1,114,0,1,0,-1,-1,0,0,0,0,-1,-1,0.681691655,0
1A_028,10,1,1,1,115,0,0,1,0,-1,-1,0,-1,0,0,-1,0.642739933,0
1A_028,10,1,1,1,116,0,0,0,0,0,-1,-1,1,-1,0,0,0,0
1A_028,10,1,1,1,117,1,1,0,NaN,0,0,-1,NaN,1,-1,0,0.491586717,0
1A_028,10,1,1,1,118,0,0,1,1,NaN,0,0,0,NaN,1,-1,0.414399928,0
1A_028,10,1,1,1,119,0,0,1,0,1,NaN,0,1,0,NaN,1,0.546706404,0
1A_028,10,1,1,1,120,1,0,1,0,0,1,NaN,1,1,0,NaN,0.655138002,0
1A_028,10,1,1,1,121,1,0,1,-1,0,0,1,0,1,1,0,0.725464072,0
1A_028,10,1,1,1,122,1,0,1,-1,-1,0,0,0,0,1,1,0.484558708,0
1A_028,10,1,1,1,123,1,0,1,-1,-1,-1,0,0,0,0,1,0.650256195,0
1A_028,10,1,1,1,124,0,0,1,-1,-1,-1,-1,0,0,0,0,0.678062152,0
1A_028,10,1,1,1,125,0,1,0,0,-1,-1,-1,1,0,0,0,1.103025871,0
1A_028,10,1,1,1,126,0,1,1,0,0,-1,-1,-1,1,0,0,1.241060914,1
1A_028,10,1,1,1,127,0,0,0,0,0,0,-1,-1,-1,1,0,0.796988126,1
1A_028,10,1,1,1,128,1,1,1,0,0,0,0,1,-1,-1,1,1.10551953,1
1A_028,10,1,1,1,129,0,1,1,1,0,0,0,0,1,-1,-1,0.929562678,1
1A_028,10,1,1,1,130,0,0,0,0,1,0,0,-1,0,1,-1,1.41066811,1
1A_028,10,1,1,1,131,0,0,0,0,0,1,0,1,-1,0,1,0.711244817,1
1A_028,10,1,1,1,132,0,1,1,0,0,0,1,1,1,-1,0,1.428123892,1
1A_028,10,1,1,1,133,0,0,0,0,0,0,0,-1,1,1,-1,1.464321825,1
1A_028,10,1,1,1,134,1,1,1,0,0,0,0,1,-1,1,1,1.465846819,1
1A_028,10,1,1,1,135,0,0,0,1,0,0,0,0,1,-1,1,0,1
1A_028,10,1,1,1,136,0,0,0,NaN,1,0,0,NaN,0,1,-1,0.797436335,1
1A_028,10,1,1,1,137,1,0,0,0,NaN,1,0,1,NaN,0,1,0.643045012,1
1A_028,10,1,1,1,138,0,0,0,-1,0,NaN,1,0,1,NaN,0,0.621332291,1
1A_028,10,1,1,1,139,1,0,0,0,-1,0,NaN,1,0,1,NaN,0.598362853,1
1A_028,10,1,1,1,140,0,0,0,-1,0,-1,0,0,1,0,1,0.583721864,1
1A_028,10,1,1,1,141,0,0,0,0,-1,0,-1,1,0,1,0,0.473437177,1
1A_028,10,1,1,1,142,1,1,1,0,0,-1,0,1,1,0,1,0.596633493,1
1A_028,10,1,1,1,143,1,1,1,1,0,0,-1,0,1,1,0,0.558581263,1
1A_028,10,1,1,1,144,0,1,1,1,1,0,0,0,0,1,1,0.531078712,1
1A_028,10,1,1,1,145,0,0,0,0,1,1,0,-1,0,0,1,0.495374832,1
1A_028,10,1,1,1,146,0,0,0,0,0,1,1,1,-1,0,0,0.78994559,1
1A_028,10,1,1,1,147,1,1,1,0,0,0,1,1,1,-1,0,0.721886964,1
1A_028,10,1,1,1,148,1,1,1,1,0,0,0,0,1,1,-1,0.684343661,1
1A_028,10,1,1,1,149,1,1,1,1,1,0,0,0,0,1,1,0.672155224,1
1A_028,10,1,1,1,150,1,1,1,1,1,1,0,0,0,0,1,0.605579188,1
1A_028,10,1,1,1,151,1,1,1,1,1,1,1,0,0,0,0,0.617351992,1
1A_028,10,1,1,1,152,1,0,0,1,1,1,1,0,0,0,0,0.565500777,1
1A_028,10,1,1,1,153,0,1,1,-1,1,1,1,0,0,0,0,0.545262876,1
1A_028,10,1,1,1,154,0,0,0,0,-1,1,1,-1,0,0,0,0.96184223,1
1A_028,10,1,1,1,155,1,1,1,0,0,-1,1,1,-1,0,0,0.50176642,1
1A_028,10,1,1,1,156,0,0,0,1,0,0,-1,0,1,-1,0,0.681431215,1
1A_028,10,1,1,1,157,0,1,1,0,1,0,0,1,0,1,-1,0.690581581,1
1A_028,10,1,1,1,158,1,1,1,0,0,1,0,-1,1,0,1,0.683558826,1
1A_028,10,1,1,1,159,1,0,0,1,0,0,1,0,-1,1,0,0.819161379,1
1A_028,10,1,1,1,160,1,1,1,-1,1,0,0,0,0,-1,1,0.468063916,1
1A_030,11,1,1,1,1,1,1,1,NaN,NaN,NaN,NaN,NaN,NaN,NaN,NaN,1.092055206,1
1A_030,11,1,1,1,2,1,1,1,1,NaN,NaN,NaN,0,NaN,NaN,NaN,0.548223076,1
1A_030,11,1,1,1,3,0,1,1,1,1,NaN,NaN,0,0,NaN,NaN,0.519824481,1
1A_030,11,1,1,1,4,0,1,1,0,1,1,NaN,-1,0,0,NaN,0.57415931,1
1A_030,11,1,1,1,5,0,0,0,0,0,1,1,-1,-1,0,0,0.505093852,1
1A_030,11,1,1,1,6,1,1,1,0,0,0,1,1,-1,-1,0,0.709656966,1
1A_030,11,1,1,1,7,1,1,1,1,0,0,0,0,1,-1,-1,0.502993981,1
1A_030,11,1,1,1,8,1,0,0,1,1,0,0,0,0,1,-1,0.613960045,1
1A_030,11,1,1,1,9,0,0,0,-1,1,1,0,0,0,0,1,0.565058405,1
1A_030,11,1,1,1,10,1,0,0,0,-1,1,1,1,0,0,0,0.55627405,1
1A_030,11,1,1,1,11,1,1,1,-1,0,-1,1,0,1,0,0,0.84289841,1
1A_030,11,1,1,1,12,1,1,1,1,-1,0,-1,0,0,1,0,0.547397498,1
1A_030,11,1,1,1,13,1,1,1,1,1,-1,0,0,0,0,1,0.783430688,1
1A_030,11,1,1,1,14,0,0,0,1,1,1,-1,0,0,0,0,0.709056573,1
1A_030,11,1,1,1,15,0,1,1,0,1,1,1,1,0,0,0,0.7806054,1
1A_030,11,1,1,1,16,1,0,0,0,0,1,1,-1,1,0,0,1.32359932,1
1A_030,11,1,1,1,17,0,0,0,-1,0,0,1,0,-1,1,0,0.795327938,1
1A_030,11,1,1,1,18,1,1,1,0,-1,0,0,1,0,-1,1,0.971101813,1
1A_030,11,1,1,1,19,1,1,1,1,0,-1,0,0,1,0,-1,0.607411848,1
1A_030,11,1,1,1,20,1,1,1,1,1,0,-1,0,0,1,0,0.975118291,1
1A_030,11,1,1,1,21,0,0,0,1,1,1,0,0,0,0,1,0.582165223,1
1A_030,11,1,1,1,22,1,1,1,0,1,1,1,1,0,0,0,0.805089647,1
1A_030,11,1,1,1,23,1,1,1,1,0,1,1,0,1,0,0,0.558080418,1
1A_030,11,1,1,1,24,1,1,1,1,1,0,1,0,0,1,0,0.542208463,1
1A_030,11,1,1,1,25,1,1,1,1,1,1,0,0,0,0,1,0.542964738,1
1A_030,11,1,1,1,26,1,1,1,1,1,1,1,0,0,0,0,0.58804162,1
1A_030,11,1,1,1,27,0,0,0,1,1,1,1,0,0,0,0,0.568270616,1
1A_030,11,1,1,1,28,1,1,1,0,1,1,1,1,0,0,0,0.597400344,1
1A_030,11,1,1,1,29,1,1,1,1,0,1,1,0,1,0,0,0.714749975,1
1A_030,11,1,1,1,30,1,1,1,1,1,0,1,0,0,1,0,0.519694699,1
1A_030,11,1,1,1,31,1,1,1,1,1,1,0,0,0,0,1,0.495722773,1
1A_030,11,1,1,1,32,1,1,1,1,1,1,1,0,0,0,0,0.552206415,1
1A_030,11,1,1,1,33,0,1,1,1,1,1,1,0,0,0,0,0.469621817,1
1A_030,11,1,1,1,34,0,0,0,0,1,1,1,-1,0,0,0,0.67812703,1
1A_030,11,1,1,1,35,0,0,0,0,0,1,1,1,-1,0,0,1.245551515,1
1A_030,11,1,1,1,36,0,1,1,0,0,0,1,1,1,-1,0,1.019777528,1
1A_030,11,1,1,1,37,1,1,1,0,0,0,0,-1,1,1,-1,0.610890685,1
1A_030,11,1,1,1,38,1,1,1,1,0,0,0,0,-1,1,1,0.510535927,1
1A_030,11,1,1,1,39,1,1,1,1,1,0,0,0,0,-1,1,0.793360883,1
1A_030,11,1,1,1,40,1,1,1,1,1,1,0,0,0,0,-1,0.521982758,1
1A_030,11,1,1,1,41,1,1,1,1,1,1,1,0,0,0,0,0.555514554,1
1A_030,11,1,1,1,42,0,1,1,1,1,1,1,0,0,0,0,0.473060524,1
1A_030,11,1,1,1,43,1,1,1,0,1,1,1,-1,0,0,0,0.556011259,1
1A_030,11,1,1,1,44,1,1,1,1,0,1,1,0,-1,0,0,0.550442449,1
1A_030,11,1,1,1,45,1,1,1,1,1,0,1,0,0,-1,0,0.536249003,1
1A_030,11,1,1,1,46,1,1,1,1,1,1,0,0,0,0,-1,0.541538875,1
1A_030,11,1,1,1,47,1,1,1,1,1,1,1,0,0,0,0,0.550851027,1
1A_030,11,1,1,1,48,0,0,0,1,1,1,1,0,0,0,0,0.885919627,1
1A_030,11,1,1,1,49,1,1,1,0,1,1,1,1,0,0,0,0.902230562,1
1A_030,11,1,1,1,50,1,1,1,1,0,1,1,0,1,0,0,0.576992691,1
1A_030,11,1,1,1,51,1,1,1,1,1,0,1,0,0,1,0,0.519889435,1
1A_030,11,1,1,1,52,1,1,1,1,1,1,0,0,0,0,1,0.521230562,1
1A_030,11,1,1,1,53,1,1,1,1,1,1,1,0,0,0,0,0.611903227,1
1A_030,11,1,1,1,54,0,1,1,1,1,1,1,0,0,0,0,0.572161032,1
1A_030,11,1,1,1,55,0,0,0,0,1,1,1,-1,0,0,0,0.971084423,1
1A_030,11,1,1,1,56,0,1,0,0,0,1,1,1,-1,0,0,0.583601682,0
1A_030,11,1,1,1,57,0,1,0,0,0,0,1,-1,1,-1,0,0.945154407,0
1A_030,11,1,1,1,58,1,0,1,0,0,0,0,-1,-1,1,-1,0.575185334,0
1A_030,11,1,1,1,59,1,0,1,-1,0,0,0,0,-1,-1,1,0.54511576,0
1A_030,11,1,1,1,60,1,0,1,-1,-1,0,0,0,0,-1,-1,0.581948764,0
1A_030,11,1,1,1,61,1,0,1,-1,-1,-1,0,0,0,0,-1,0.525368959,0
1A_030,11,1,1,1,62,1,0,1,-1,-1,-1,-1,0,0,0,0,0.594438615,0
1A_030,11,1,1,1,63,1,0,1,-1,-1,-1,-1,0,0,0,0,0.774159574,0
1A_030,11,1,1,1,64,1,0,1,-1,-1,-1,-1,0,0,0,0,0.616272754,0
1A_030,11,1,1,1,65,1,0,1,-1,-1,-1,-1,0,0,0,0,0.601697179,0
1A_030,11,1,1,1,66,0,0,1,-1,-1,-1,-1,0,0,0,0,0.742878938,0
1A_030,11,1,1,1,67,1,0,1,0,-1,-1,-1,1,0,0,0,1.263417075,0
1A_030,11,1,1,1,68,0,0,1,-1,0,-1,-1,0,1,0,0,0.563502039,0
1A_030,11,1,1,1,69,0,1,0,0,-1,0,-1,1,0,1,0,0.867014162,0
1A_030,11,1,1,1,70,0,0,1,0,0,-1,0,-1,1,0,1,0.574482965,0
1A_030,11,1,1,1,71,1,1,1,0,0,0,-1,1,-1,1,0,0.793442271,1
1A_030,11,1,1,1,72,1,1,1,1,0,0,0,0,1,-1,1,0.980875988,1
1A_030,11,1,1,1,73,1,1,1,1,1,0,0,0,0,1,-1,0.607730155,1
1A_030,11,1,1,1,74,1,1,1,1,1,1,0,0,0,0,1,0.597342521,1
1A_030,11,1,1,1,75,0,1,1,1,1,1,1,0,0,0,0,0.560589735,1
1A_030,11,1,1,1,76,0,0,0,0,1,1,1,-1,0,0,0,1.226399309,1
1A_030,11,1,1,1,77,0,1,1,0,0,1,1,1,-1,0,0,1.141122267,1
1A_030,11,1,1,1,78,0,0,0,0,0,0,1,-1,1,-1,0,0.520274894,1
1A_030,11,1,1,1,79,1,1,1,0,0,0,0,1,-1,1,-1,0.979511238,1
1A_030,11,1,1,1,80,1,1,1,1,0,0,0,0,1,-1,1,0.639866637,1
1A_030,11,1,1,1,81,1,1,1,1,1,0,0,0,0,1,-1,1.131832889,1
1A_030,11,1,1,1,82,1,1,1,1,1,1,0,0,0,0,1,0.832717645,1
1A_030,11,1,1,1,83,1,1,1,1,1,1,1,0,0,0,0,0.652621751,1
1A_030,11,1,1,1,84,1,1,1,1,1,1,1,0,0,0,0,0.563043487,1
1A_030,11,1,1,1,85,0,0,0,1,1,1,1,0,0,0,0,0.790354949,1
1A_030,11,1,1,1,86,1,1,1,0,1,1,1,1,0,0,0,1.077748489,1
1A_030,11,1,1,1,87,1,1,1,1,0,1,1,0,1,0,0,0.773138927,1
1A_030,11,1,1,1,88,1,1,1,1,1,0,1,0,0,1,0,0.670983771,1
1A_030,11,1,1,1,89,0,1,1,1,1,1,0,0,0,0,1,0.61034311,1
1A_030,11,1,1,1,90,1,1,1,0,1,1,1,-1,0,0,0,1.351821387,1
1A_030,11,1,1,1,91,0,1,0,1,0,1,1,0,-1,0,0,0.794949686,0
1A_030,11,1,1,1,92,1,0,1,0,1,0,1,-1,0,-1,0,0.750220196,0
1A_030,11,1,1,1,93,1,0,1,-1,0,1,0,0,-1,0,-1,0.902190509,0
1A_030,11,1,1,1,94,0,0,1,-1,-1,0,1,0,0,-1,0,0.76127239,0
1A_030,11,1,1,1,95,0,0,0,0,-1,-1,0,1,0,0,-1,0,0
1A_030,11,1,1,1,96,1,1,0,NaN,0,-1,-1,NaN,1,0,0,0.772651951,0
1A_030,11,1,1,1,97,0,1,0,1,NaN,0,-1,0,NaN,1,0,0.535033566,0
1A_030,11,1,1,1,98,0,1,0,0,1,NaN,0,-1,0,NaN,1,0.587193391,0
1A_030,11,1,1,1,99,0,1,0,0,0,1,NaN,-1,-1,0,NaN,0.571456538,0
1A_030,11,1,1,1,100,0,1,0,0,0,0,1,-1,-1,-1,0,1.257917574,0
1A_030,11,1,1,1,101,1,0,1,0,0,0,0,-1,-1,-1,-1,0.517735985,0
1A_030,11,1,1,1,102,1,0,1,-1,0,0,0,0,-1,-1,-1,0.600610866,0
1A_030,11,1,1,1,103,1,0,1,-1,-1,0,0,0,0,-1,-1,0.589769054,0
1A_030,11,1,1,1,104,1,0,1,-1,-1,-1,0,0,0,0,-1,0.499137798,0
1A_030,11,1,1,1,105,1,0,1,-1,-1,-1,-1,0,0,0,0,0.563575251,0
1A_030,11,1,1,1,106,0,0,0,-1,-1,-1,-1,0,0,0,0,0.570828342,1
1A_030,11,1,1,1,107,0,0,0,0,-1,-1,-1,1,0,0,0,0.628272894,1
1A_030,11,1,1,1,108,1,1,1,0,0,-1,-1,1,1,0,0,0.648008957,1
1A_030,11,1,1,1,109,0,1,1,1,0,0,-1,0,1,1,0,0.545610596,1
1A_030,11,1,1,1,110,0,0,0,0,1,0,0,-1,0,1,1,1.03329549,1
1A_030,11,1,1,1,111,1,1,1,0,0,1,0,1,-1,0,1,0.583832825,1
1A_030,11,1,1,1,112,1,1,1,1,0,0,1,0,1,-1,0,0.594430951,1
1A_030,11,1,1,1,113,0,1,1,1,1,0,0,0,0,1,-1,0.556353295,1
1A_030,11,1,1,1,114,0,0,0,0,1,1,0,-1,0,0,1,0.794210007,1
1A_030,11,1,1,1,115,0,1,1,0,0,1,1,1,-1,0,0,0.545878662,1
1A_030,11,1,1,1,116,0,0,0,0,0,0,1,-1,1,-1,0,0.910786088,1
1A_030,11,1,1,1,117,1,0,0,0,0,0,0,1,-1,1,-1,1.0037728,1
1A_030,11,1,1,1,118,0,0,0,-1,0,0,0,0,1,-1,1,0.690000108,1
1A_030,11,1,1,1,119,0,0,0,0,-1,0,0,1,0,1,-1,0.52446696,1
1A_030,11,1,1,1,120,1,1,1,0,0,-1,0,1,1,0,1,0.797745873,1
1A_030,11,1,1,1,121,0,1,1,1,0,0,-1,0,1,1,0,0.560612328,1
1A_030,11,1,1,1,122,0,0,0,0,1,0,0,-1,0,1,1,0.56697057,1
1A_030,11,1,1,1,123,1,1,1,0,0,1,0,1,-1,0,1,0.562697222,1
1A_030,11,1,1,1,124,1,1,1,1,0,0,1,0,1,-1,0,0.650615418,1
1A_030,11,1,1,1,125,0,1,1,1,1,0,0,0,0,1,-1,0.572915686,1
1A_030,11,1,1,1,126,0,1,0,0,1,1,0,-1,0,0,1,0.860125304,0
1A_030,11,1,1,1,127,1,0,1,0,0,1,1,-1,-1,0,0,0.540014706,0
1A_030,11,1,1,1,128,1,0,1,-1,0,0,1,0,-1,-1,0,0.575834443,0
1A_030,11,1,1,1,129,1,0,1,-1,-1,0,0,0,0,-1,-1,0.633929233,0
1A_030,11,1,1,1,130,0,0,1,-1,-1,-1,0,0,0,0,-1,0.602540496,0
1A_030,11,1,1,1,131,1,0,1,0,-1,-1,-1,1,0,0,0,1.334449292,0
