sub_idx,Cond,Order,Group,Trial_idx,Outcome,Choice_t,Correct,winstay_t1,winstay_t2,winstay_t3,winstay_t4,loseshift_t1,loseshift_t2,loseshift_t3,loseshift_t4,RT
1,2,1,1,1,1,0,1,NaN,NaN,NaN,NaN,NaN,NaN,NaN,NaN,0.745739507591679
1,2,1,1,2,1,0,1,-1,NaN,NaN,NaN,0,NaN,NaN,NaN,0.629755926205689
1,2,1,1,3,1,0,1,-1,-1,NaN,NaN,0,0,NaN,NaN,0.689797074489434
1,2,1,1,4,1,0,1,-1,-1,-1,NaN,0,0,0,NaN,0.612831001056293
1,2,1,1,5,1,1,0,-1,-1,-1,-1,0,0,0,0,0.398312450545291
1,2,1,1,6,1,0,1,1,-1,-1,-1,-0,0,0,0,0.620190153175827
1,2,1,1,7,1,0,1,-1,1,-1,-1,0,-0,0,0,0.377814246952767
1,2,1,1,8,1,1,0,-1,-1,1,-1,0,0,-0,0,0.364668182608057
1,2,1,1,9,1,0,1,1,-1,-1,1,-0,0,0,-0,0.437846007204371
1,2,1,1,10,1,1,0,-1,1,-1,-1,0,-0,0,0,0.549476361005418
1,2,1,1,11,1,0,1,1,-1,1,-1,-0,0,-0,0,0.774538628769278
1,2,1,1,12,1,0,1,-1,1,-1,1,0,-0,0,-0,0.615034241673129
1,2,1,1,13,1,0,1,-1,-1,1,-1,0,0,-0,0,0.432916455704799
1,2,1,1,14,1,0,1,-1,-1,-1,1,0,0,0,-0,0.5340582078029
1,2,1,1,15,1,0,1,-1,-1,-1,-1,0,0,0,0,0.546556197203699
1,2,1,1,16,1,0,1,-1,-1,-1,-1,0,0,0,0,0.537017380306224
1,2,1,1,17,0,1,0,-1,-1,-1,-1,0,0,0,0,0.43210697745144
1,2,1,1,18,1,0,1,0,-1,-1,-1,-1,0,0,0,0.521734330557592
1,2,1,1,19,1,0,1,-1,0,-1,-1,0,-1,0,0,0.455859888593295
1,2,1,1,20,0,0,1,-1,-1,0,-1,0,0,-1,0,0.663905250882181
1,2,1,1,21,0,1,0,-0,-1,-1,0,1,0,0,-1,0.39933221236106
1,2,1,1,22,1,1,0,0,-0,-1,-1,-1,1,0,0,0.379857376763994
1,2,1,1,23,1,0,1,1,0,-0,-1,-0,-1,1,0,0.475111073500102
1,2,1,1,24,1,0,1,-1,1,0,-0,0,-0,-1,1,0.424861950318245
1,2,1,1,25,0,1,0,-1,-1,1,0,0,0,-0,-1,0.532026794068315
1,2,1,1,26,0,1,0,0,-1,-1,1,-1,0,0,-0,0.359411571388137
1,2,1,1,27,0,1,0,0,0,-1,-1,-1,-1,0,0,0.396409878234863
1,2,1,1,28,1,0,1,0,0,0,-1,-1,-1,-1,0,0.540850875147044
1,2,1,1,29,1,0,1,-1,0,0,0,0,-1,-1,-1,0.516182439919248
1,2,1,1,30,0,1,0,-1,-1,0,0,0,0,-1,-1,0.643115980204584
1,2,1,1,31,0,1,0,0,-1,-1,0,-1,0,0,-1,0.420819718375697
1,2,1,1,32,1,1,0,0,0,-1,-1,-1,-1,0,0,0.523426895650573
1,2,1,1,33,1,0,1,1,0,0,-1,-0,-1,-1,0,0.54955876583881
1,2,1,1,34,0,0,1,-1,1,0,0,0,-0,-1,-1,0.624097526598689
1,2,1,1,35,0,1,0,-0,-1,1,0,1,0,-0,-1,0.439596604336202
1,2,1,1,36,1,0,1,0,-0,-1,1,-1,1,0,-0,0.447788965595464
1,2,1,1,37,1,0,1,-1,0,-0,-1,0,-1,1,0,0.484003762564498
1,2,1,1,38,1,0,1,-1,-1,0,-0,0,0,-1,1,0.523951507698712
1,2,1,1,39,1,0,1,-1,-1,-1,0,0,0,0,-1,0.495288530528342
1,2,1,1,40,1,0,1,-1,-1,-1,-1,0,0,0,0,0.736315093696703
1,2,1,1,41,1,0,1,-1,-1,-1,-1,0,0,0,0,0.512567125347232
1,2,1,1,42,1,0,1,-1,-1,-1,-1,0,0,0,0,0.569001174548248
1,2,1,1,43,1,0,1,-1,-1,-1,-1,0,0,0,0,0.573017533014081
1,2,1,1,44,0,0,1,-1,-1,-1,-1,0,0,0,0,0.520021919776809
1,2,1,1,45,1,0,1,-0,-1,-1,-1,1,0,0,0,0.40953309886936
1,2,1,1,46,1,0,1,-1,-0,-1,-1,0,1,0,0,0.793217291422025
1,2,1,1,47,1,0,1,-1,-1,-0,-1,0,0,1,0,0.649881576133339
1,2,1,1,48,1,0,1,-1,-1,-1,-0,0,0,0,1,0.652197841036468
1,2,1,1,49,1,0,1,-1,-1,-1,-1,0,0,0,0,0.753171798813128
1,2,1,1,50,1,0,1,-1,-1,-1,-1,0,0,0,0,0.394047346824209
1,2,1,1,51,0,0,1,-1,-1,-1,-1,0,0,0,0,0.415674896412384
1,2,1,1,52,0,1,0,-0,-1,-1,-1,1,0,0,0,0.35483449963931
1,2,1,1,53,1,1,0,0,-0,-1,-1,-1,1,0,0,0.362112201935361
1,2,1,1,54,0,0,1,1,0,-0,-1,-0,-1,1,0,0.64493427876414
1,2,1,1,55,1,0,1,-0,1,0,-0,1,-0,-1,1,0.570937502673587
1,2,1,1,56,0,0,0,-1,-0,1,0,0,1,-0,-1,0.480850571736028
1,2,1,1,57,1,1,1,-0,-1,-0,1,1,0,1,-0,0.651240628007599
1,2,1,1,58,1,0,0,1,-0,-1,-0,-0,1,0,1,0.889964617528676
1,2,1,1,59,0,0,0,-1,1,-0,-1,0,-0,1,0,0.433423121391115
1,2,1,1,60,0,0,0,-0,-1,1,-0,1,0,-0,1,0.450260158254878
1,2,1,1,61,1,1,1,-0,-0,-1,1,1,1,0,-0,0.541494596744087
1,2,1,1,62,0,0,0,1,-0,-0,-1,-0,1,1,0,0.638066953258658
1,2,1,1,63,1,0,0,-0,1,-0,-0,1,-0,1,1,0.416004079341292
1,2,1,1,64,1,1,1,-1,-0,1,-0,0,1,-0,1,0.598260502432368
1,2,1,1,65,1,1,1,1,-1,-0,1,-0,0,1,-0,0.696893948153047
1,2,1,1,66,0,0,0,1,1,-1,-0,-0,-0,0,1,0.462704979549926
1,2,1,1,67,0,0,0,-0,1,1,-1,1,-0,-0,0,0.349611463457222
1,2,1,1,68,0,0,0,-0,-0,1,1,1,1,-0,-0,0.378133046407129
1,2,1,1,69,1,1,1,-0,-0,-0,1,1,1,1,-0,0.351980435334553
1,2,1,1,70,1,1,1,1,-0,-0,-0,-0,1,1,1,0.694119975339618
1,2,1,1,71,0,1,0,1,1,-0,-0,-0,-0,1,1,0.483478175791333
1,2,1,1,72,1,1,0,0,1,1,-0,-1,-0,-0,1,0.70346012951768
1,2,1,1,73,0,1,0,1,0,1,1,-0,-1,-0,-0,0.690199862663121
1,2,1,1,74,1,0,1,0,1,0,1,-1,-0,-1,-0,0.735042982784307
1,2,1,1,75,0,1,0,-1,0,1,0,0,-1,-0,-1,0.614490885973737
1,2,1,1,76,0,1,0,0,-1,0,1,-1,0,-1,-0,0.453063896760341
1,2,1,1,77,1,0,1,0,0,-1,0,-1,-1,0,-1,0.505496676847088
1,2,1,1,78,0,1,0,-1,0,0,-1,0,-1,-1,0,1.05693987348968
1,2,1,1,79,1,1,0,0,-1,0,0,-1,0,-1,-1,0.665688834273169
1,2,1,1,80,0,1,0,1,0,-1,0,-0,-1,0,-1,0.709307913748489
1,2,1,1,81,1,0,1,0,1,0,-1,-1,-0,-1,0,0.48068496043652
1,2,1,1,82,1,0,1,-1,0,1,0,0,-1,-0,-1,0.578224665178368
1,2,1,1,83,0,0,1,-1,-1,0,1,0,0,-1,-0,0.696870575812682
1,2,1,1,84,1,0,1,-0,-1,-1,0,1,0,0,-1,0.513032402159752
1,2,1,1,85,1,0,1,-1,-0,-1,-1,0,1,0,0,0.746625052461695
1,2,1,1,86,1,0,1,-1,-1,-0,-1,0,0,1,0,0.689436550337177
1,2,1,1,87,0,0,1,-1,-1,-1,-0,0,0,0,1,0.561740090689
1,2,1,1,88,1,0,1,-0,-1,-1,-1,1,0,0,0,0.423761786583327
1,2,1,1,89,1,0,1,-1,-0,-1,-1,0,1,0,0,0.615286603132972
1,2,1,1,90,0,0,1,-1,-1,-0,-1,0,0,1,0,0.846351667757972
1,2,1,1,91,1,0,0,-0,-1,-1,-0,1,0,0,1,0.364207702898057
1,2,1,1,92,0,0,0,-1,-0,-1,-1,0,1,0,0,0.623713980966386
1,2,1,1,93,0,0,0,-0,-1,-0,-1,1,0,1,0,0.432379739293992
1,2,1,1,94,0,0,0,-0,-0,-1,-0,1,1,0,1,0.681765848882605
1,2,1,1,95,0,0,0,-0,-0,-0,-1,1,1,1,0,0.902901758982352
1,2,1,1,96,0,0,0,-0,-0,-0,-0,1,1,1,1,0.539739365577134
1,2,1,1,97,1,1,1,-0,-0,-0,-0,1,1,1,1,0.578715502031628
1,2,1,1,98,1,1,1,1,-0,-0,-0,-0,1,1,1,0.65913459955118
1,2,1,1,99,0,0,0,1,1,-0,-0,-0,-0,1,1,0.813201817458776
1,2,1,1,100,1,1,1,-0,1,1,-0,1,-0,-0,1,0.575993869960712
1,2,1,1,101,0,0,0,1,-0,1,1,-0,1,-0,-0,0.429260030274236
1,2,1,1,102,0,0,0,-0,1,-0,1,1,-0,1,-0,0.633570274072554
1,2,1,1,103,0,0,0,-0,-0,1,-0,1,1,-0,1,0.585053894554221
1,2,1,1,104,0,0,0,-0,-0,-0,1,1,1,1,-0,0.541271058329585
1,2,1,1,105,1,1,1,-0,-0,-0,-0,1,1,1,1,0.575676303531509
1,2,1,1,106,0,1,0,1,-0,-0,-0,-0,1,1,1,0.687159734214219
1,2,1,1,107,0,1,0,0,1,-0,-0,-1,-0,1,1,0.710313658843006
1,2,1,1,108,1,0,1,0,0,1,-0,-1,-1,-0,1,0.561737075959627
1,2,1,1,109,1,0,1,-1,0,0,1,0,-1,-1,-0,0.73292794422332
1,2,1,1,110,1,0,1,-1,-1,0,0,0,0,-1,-1,0.588409604897151
1,2,1,1,111,1,0,1,-1,-1,-1,0,0,0,0,-1,0.449631896920437
1,2,1,1,112,0,0,1,-1,-1,-1,-1,0,0,0,0,0.45574050102914
1,2,1,1,113,1,0,1,-0,-1,-1,-1,1,0,0,0,0.381117327844549
1,2,1,1,114,1,0,1,-1,-0,-1,-1,0,1,0,0,0.775901011147198
1,2,1,1,115,1,1,0,-1,-1,-0,-1,0,0,1,0,0.939278548371931
1,2,1,1,116,0,0,1,1,-1,-1,-0,-0,0,0,1,0.880129726595896
1,2,1,1,117,0,1,0,-0,1,-1,-1,1,-0,0,0,0.514291300657533
1,2,1,1,118,0,1,0,0,-0,1,-1,-1,1,-0,0,0.619958091517674
1,2,1,1,119,0,1,0,0,0,-0,1,-1,-1,1,-0,0.397717220581399
1,2,1,1,120,0,0,1,0,0,0,-0,-1,-1,-1,1,0.553319835663387
1,2,1,1,121,0,1,0,-0,0,0,0,1,-1,-1,-1,0.798537024834332
1,2,1,1,122,1,0,1,0,-0,0,0,-1,1,-1,-1,0.396930357476776
1,2,1,1,123,1,0,1,-1,0,-0,0,0,-1,1,-1,0.80151753702421
1,2,1,1,124,1,0,1,-1,-1,0,-0,0,0,-1,1,0.664786492862277
1,2,1,1,125,1,0,1,-1,-1,-1,0,0,0,0,-1,0.698023797717269
1,2,1,1,126,1,1,1,-1,-1,-1,-1,0,0,0,0,0.992089205517459
1,2,1,1,127,1,1,1,1,-1,-1,-1,-0,0,0,0,0.497480167343838
1,2,1,1,128,1,1,1,1,1,-1,-1,-0,-0,0,0,0.522923260064999
1,2,1,1,129,0,0,0,1,1,1,-1,-0,-0,-0,0,0.682917399019061
1,2,1,1,130,1,1,1,-0,1,1,1,1,-0,-0,-0,0.632681781971769
1,2,1,1,131,0,0,0,1,-0,1,1,-0,1,-0,-0,0.641701119413028
1,2,1,1,132,1,1,1,-0,1,-0,1,1,-0,1,-0,0.677462837160419
1,2,1,1,133,1,1,1,1,-0,1,-0,-0,1,-0,1,0.670207597639546
1,2,1,1,134,0,0,0,1,1,-0,1,-0,-0,1,-0,0.613639371925728
1,2,1,1,135,0,1,1,-0,1,1,-0,1,-0,-0,1,0.365287055910358
1,2,1,1,136,0,0,0,0,-0,1,1,-1,1,-0,-0,0.465192251657299
1,2,1,1,137,1,1,1,-0,0,-0,1,1,-1,1,-0,0.625831302796087
1,2,1,1,138,1,1,1,1,-0,0,-0,-0,1,-1,1,0.600165315574486
1,2,1,1,139,1,1,1,1,1,-0,0,-0,-0,1,-1,0.631320326868718
1,2,1,1,140,0,0,0,1,1,1,-0,-0,-0,-0,1,0.756711741138133
1,2,1,1,141,1,1,1,-0,1,1,1,1,-0,-0,-0,0.568781538040184
1,2,1,1,142,1,1,1,1,-0,1,1,-0,1,-0,-0,0.709736637884816
1,2,1,1,143,0,0,0,1,1,-0,1,-0,-0,1,-0,0.609468684840067
1,2,1,1,144,1,1,1,-0,1,1,-0,1,-0,-0,1,0.607452054707665
1,2,1,1,145,1,1,1,1,-0,1,1,-0,1,-0,-0,0.547173391052638
1,2,1,1,146,0,0,0,1,1,-0,1,-0,-0,1,-0,1.00415613471705
1,2,1,1,147,1,1,1,-0,1,1,-0,1,-0,-0,1,0.984773304506689
1,2,1,1,148,1,1,1,1,-0,1,1,-0,1,-0,-0,0.690833347145144
1,2,1,1,149,0,0,0,1,1,-0,1,-0,-0,1,-0,0.648544515878712
1,2,1,1,150,1,1,1,-0,1,1,-0,1,-0,-0,1,0.474210549214149
1,2,1,1,151,0,0,0,1,-0,1,1,-0,1,-0,-0,0.494318072003352
1,2,1,1,152,1,1,1,-0,1,-0,1,1,-0,1,-0,0.48125832943515
1,2,1,1,153,0,0,0,1,-0,1,-0,-0,1,-0,1,0.601387446201443
1,2,1,1,154,0,0,0,-0,1,-0,1,1,-0,1,-0,0.761287679774341
1,2,1,1,155,1,1,1,-0,-0,1,-0,1,1,-0,1,0.649724488411721
1,2,1,1,156,1,1,1,1,-0,-0,1,-0,1,1,-0,0.833068436898429
1,2,1,1,157,0,0,0,1,1,-0,-0,-0,-0,1,1,0.727691625120315
1,2,1,1,158,1,1,1,-0,1,1,-0,1,-0,-0,1,0.470283301699965
1,2,1,1,159,0,1,1,1,-0,1,1,-0,1,-0,-0,0.731590520410464
1,2,1,1,160,0,0,0,0,1,-0,1,-1,-0,1,-0,0.69254286115256
2,2,1,1,1,1,1,1,NaN,NaN,NaN,NaN,NaN,NaN,NaN,NaN,1.1494649144588
2,2,1,1,2,1,1,1,1,NaN,NaN,NaN,-0,NaN,NaN,NaN,0.619409938808531
2,2,1,1,3,1,1,1,1,1,NaN,NaN,-0,-0,NaN,NaN,0.429614697350189
2,2,1,1,4,1,1,1,1,1,1,NaN,-0,-0,-0,NaN,0.609888542909175
2,2,1,1,5,0,1,1,1,1,1,1,-0,-0,-0,-0,0.729507153620943
2,2,1,1,6,1,1,1,0,1,1,1,-1,-0,-0,-0,1.22047328599729
2,2,1,1,7,1,1,1,1,0,1,1,-0,-1,-0,-0,0.647473203600384
2,2,1,1,8,0,0,0,1,1,0,1,-0,-0,-1,-0,1.14244059566408
2,2,1,1,9,1,1,1,-0,1,1,0,1,-0,-0,-1,1.02305011311546
2,2,1,1,10,1,1,1,1,-0,1,1,-0,1,-0,-0,0.689060451812111
2,2,1,1,11,0,1,1,1,1,-0,1,-0,-0,1,-0,0.668073591892608
2,2,1,1,12,1,1,1,0,1,1,-0,-1,-0,-0,1,0.847406059154309
2,2,1,1,13,1,1,1,1,0,1,1,-0,-1,-0,-0,0.687892304733396
2,2,1,1,14,1,1,1,1,1,0,1,-0,-0,-1,-0,0.797376681119204
2,2,1,1,15,0,0,0,1,1,1,0,-0,-0,-0,-1,0.565674842218868
2,2,1,1,16,1,1,1,-0,1,1,1,1,-0,-0,-0,0.56729051633738
2,2,1,1,17,1,1,1,1,-0,1,1,-0,1,-0,-0,0.950782716157846
2,2,1,1,18,0,1,1,1,1,-0,1,-0,-0,1,-0,0.550170247559436
2,2,1,1,19,1,1,1,0,1,1,-0,-1,-0,-0,1,1.40291677392088
2,2,1,1,20,1,1,1,1,0,1,1,-0,-1,-0,-0,0.812535661505535
2,2,1,1,21,0,0,0,1,1,0,1,-0,-0,-1,-0,0.528748205397278
2,2,1,1,22,1,1,1,-0,1,1,0,1,-0,-0,-1,1.43113446026109
2,2,1,1,23,1,1,1,1,-0,1,1,-0,1,-0,-0,0.64628291176632
2,2,1,1,24,1,1,1,1,1,-0,1,-0,-0,1,-0,0.579663236741908
2,2,1,1,25,1,1,1,1,1,1,-0,-0,-0,-0,1,0.744975103181787
2,2,1,1,26,1,1,1,1,1,1,1,-0,-0,-0,-0,0.69951425830368
2,2,1,1,27,0,0,0,1,1,1,1,-0,-0,-0,-0,0.47741752571892
2,2,1,1,28,1,1,1,-0,1,1,1,1,-0,-0,-0,0.715242863283493
2,2,1,1,29,1,1,1,1,-0,1,1,-0,1,-0,-0,0.914183544227853
2,2,1,1,30,1,1,1,1,1,-0,1,-0,-0,1,-0,0.588850606931373
2,2,1,1,31,1,1,1,1,1,1,-0,-0,-0,-0,1,0.613021837663837
2,2,1,1,32,1,1,1,1,1,1,1,-0,-0,-0,-0,1.05342088639736
2,2,1,1,33,1,1,1,1,1,1,1,-0,-0,-0,-0,0.515830117627047
2,2,1,1,34,1,1,1,1,1,1,1,-0,-0,-0,-0,0.544260461581871
2,2,1,1,35,1,1,1,1,1,1,1,-0,-0,-0,-0,0.90397182747256
2,2,1,1,36,1,1,1,1,1,1,1,-0,-0,-0,-0,0.448532349430025
2,2,1,1,37,1,1,1,1,1,1,1,-0,-0,-0,-0,0.691243627574295
2,2,1,1,38,1,1,1,1,1,1,1,-0,-0,-0,-0,0.587162672891282
2,2,1,1,39,1,1,1,1,1,1,1,-0,-0,-0,-0,0.540802459116094
2,2,1,1,40,0,0,0,1,1,1,1,-0,-0,-0,-0,0.715991126606241
2,2,1,1,41,1,1,1,-0,1,1,1,1,-0,-0,-0,0.535655765328556
2,2,1,1,42,1,1,1,1,-0,1,1,-0,1,-0,-0,0.625366153893992
2,2,1,1,43,1,1,1,1,1,-0,1,-0,-0,1,-0,0.586298084002919
2,2,1,1,44,1,1,1,1,1,1,-0,-0,-0,-0,1,0.533094532904215
2,2,1,1,45,1,1,1,1,1,1,1,-0,-0,-0,-0,0.45775197900366
2,2,1,1,46,1,1,1,1,1,1,1,-0,-0,-0,-0,0.519182114978321
2,2,1,1,47,0,1,1,1,1,1,1,-0,-0,-0,-0,0.471741772256792
2,2,1,1,48,0,0,0,0,1,1,1,-1,-0,-0,-0,0.552387797739357
2,2,1,1,49,1,1,1,-0,0,1,1,1,-1,-0,-0,0.998654897208326
2,2,1,1,50,0,1,1,1,-0,0,1,-0,1,-1,-0,0.551378806587309
2,2,1,1,51,1,1,1,0,1,-0,0,-1,-0,1,-1,0.623870862764306
2,2,1,1,52,0,0,0,1,0,1,-0,-0,-1,-0,1,0.480817410396412
2,2,1,1,53,0,1,1,-0,1,0,1,1,-0,-1,-0,0.679267140221782
2,2,1,1,54,1,0,0,0,-0,1,0,-1,1,-0,-1,0.606289531337097
2,2,1,1,55,0,0,0,-1,0,-0,1,0,-1,1,-0,0.505291086737998
2,2,1,1,56,0,0,1,-0,-1,0,-0,1,0,-1,1,0.706153834587894
2,2,1,1,57,0,1,0,-0,-0,-1,0,1,1,0,-1,0.58738194941543
2,2,1,1,58,1,0,1,0,-0,-0,-1,-1,1,1,0,0.560350842541084
2,2,1,1,59,0,1,0,-1,0,-0,-0,0,-1,1,1,0.95396268600598
2,2,1,1,60,1,0,1,0,-1,0,-0,-1,0,-1,1,0.616438889876008
2,2,1,1,61,0,0,1,-1,0,-1,0,0,-1,0,-1,0.597103238687851
2,2,1,1,62,1,0,1,-0,-1,0,-1,1,0,-1,0,0.635703233187087
2,2,1,1,63,1,0,1,-1,-0,-1,0,0,1,0,-1,0.64158551406581
2,2,1,1,64,1,0,1,-1,-1,-0,-1,0,0,1,0,0.595145997591317
2,2,1,1,65,0,0,1,-1,-1,-1,-0,0,0,0,1,0.499846699065529
2,2,1,1,66,1,0,1,-0,-1,-1,-1,1,0,0,0,0.600092775537632
2,2,1,1,67,1,0,1,-1,-0,-1,-1,0,1,0,0,0.604361314326525
2,2,1,1,68,1,0,1,-1,-1,-0,-1,0,0,1,0,0.505158799118362
2,2,1,1,69,1,0,1,-1,-1,-1,-0,0,0,0,1,0.612319946056232
2,2,1,1,70,1,0,1,-1,-1,-1,-1,0,0,0,0,0.570442003430799
2,2,1,1,71,1,0,0,-1,-1,-1,-1,0,0,0,0,0.43039705476258
2,2,1,1,72,0,0,0,-1,-1,-1,-1,0,0,0,0,0.414335536654107
2,2,1,1,73,1,1,1,-0,-1,-1,-1,1,0,0,0,1.23888326319866
2,2,1,1,74,1,1,1,1,-0,-1,-1,-0,1,0,0,0.597431101836264
2,2,1,1,75,1,1,1,1,1,-0,-1,-0,-0,1,0,0.506792480242439
2,2,1,1,76,1,1,1,1,1,1,-0,-0,-0,-0,1,0.594350415747613
2,2,1,1,77,1,1,1,1,1,1,1,-0,-0,-0,-0,0.688100466155447
2,2,1,1,78,0,1,1,1,1,1,1,-0,-0,-0,-0,1.22981599566992
2,2,1,1,79,0,0,0,0,1,1,1,-1,-0,-0,-0,0.793177054380067
2,2,1,1,80,1,0,0,-0,0,1,1,1,-1,-0,-0,0.495991982053965
2,2,1,1,81,1,1,1,-1,-0,0,1,0,1,-1,-0,0.698020298266783
2,2,1,1,82,1,1,1,1,-1,-0,0,-0,0,1,-1,0.47441049083136
2,2,1,1,83,1,0,0,1,1,-1,-0,-0,-0,0,1,1.11139435542282
2,2,1,1,84,0,1,1,-1,1,1,-1,0,-0,-0,0,1.1380192139186
2,2,1,1,85,0,1,1,0,-1,1,1,-1,0,-0,-0,0.433363705174997
2,2,1,1,86,1,1,1,0,0,-1,1,-1,-1,0,-0,0.383673272328451
2,2,1,1,87,1,1,1,1,0,0,-1,-0,-1,-1,0,0.602731312275864
2,2,1,1,88,0,1,1,1,1,0,0,-0,-0,-1,-1,0.566037923796102
2,2,1,1,89,0,0,0,0,1,1,0,-1,-0,-0,-1,0.565946629852988
2,2,1,1,90,0,0,0,-0,0,1,1,1,-1,-0,-0,0.978936069528572
2,2,1,1,91,1,1,0,-0,-0,0,1,1,1,-1,-0,0.463703312096186
2,2,1,1,92,0,1,0,1,-0,-0,0,-0,1,1,-1,0.395809494657442
2,2,1,1,93,1,0,1,0,1,-0,-0,-1,-0,1,1,0.655327955028042
2,2,1,1,94,1,1,0,-1,0,1,-0,0,-1,-0,1,0.28539617836941
2,2,1,1,95,1,1,0,1,-1,0,1,-0,0,-1,-0,0.477297330391593
2,2,1,1,96,0,1,0,1,1,-1,0,-0,-0,0,-1,0.444061548565514
2,2,1,1,97,1,0,1,0,1,1,-1,-1,-0,-0,0,0.849979954771698
2,2,1,1,98,0,1,0,-1,0,1,1,0,-1,-0,-0,0.717055348213762
2,2,1,1,99,1,0,1,0,-1,0,1,-1,0,-1,-0,0.521244268398732
2,2,1,1,100,1,0,1,-1,0,-1,0,0,-1,0,-1,1.20057589246426
2,2,1,1,101,1,0,1,-1,-1,0,-1,0,0,-1,0,0.487383481115103
2,2,1,1,102,1,0,1,-1,-1,-1,0,0,0,0,-1,0.509635191061534
2,2,1,1,103,0,0,1,-1,-1,-1,-1,0,0,0,0,0.55433542735409
2,2,1,1,104,0,0,0,-0,-1,-1,-1,1,0,0,0,0
2,2,1,1,105,1,0,1,NaN,-0,-1,-1,NaN,1,0,0,0.702858433825895
2,2,1,1,106,0,0,0,-1,NaN,-0,-1,0,NaN,1,0,0.544452225323766
2,2,1,1,107,1,1,1,-0,-1,NaN,-0,1,0,NaN,1,0.592789528891444
2,2,1,1,108,1,1,1,1,-0,-1,NaN,-0,1,0,NaN,0.478070174111053
2,2,1,1,109,0,0,0,1,1,-0,-1,-0,-0,1,0,0.615964323980734
2,2,1,1,110,1,1,1,-0,1,1,-0,1,-0,-0,1,0.81126870913431
2,2,1,1,111,1,1,1,1,-0,1,1,-0,1,-0,-0,0.896192162763327
2,2,1,1,112,1,1,1,1,1,-0,1,-0,-0,1,-0,0.550696144462563
2,2,1,1,113,1,1,1,1,1,1,-0,-0,-0,-0,1,0.551256746752188
2,2,1,1,114,0,1,1,1,1,1,1,-0,-0,-0,-0,0.60132879705634
2,2,1,1,115,1,1,1,0,1,1,1,-1,-0,-0,-0,0.78859827585984
2,2,1,1,116,1,1,1,1,0,1,1,-0,-1,-0,-0,0.771616261685267
2,2,1,1,117,0,1,1,1,1,0,1,-0,-0,-1,-0,0.560538862133399
2,2,1,1,118,1,0,0,0,1,1,0,-1,-0,-0,-1,0.569176068180241
2,2,1,1,119,1,1,1,-1,0,1,1,0,-1,-0,-0,0.986154004349373
2,2,1,1,120,0,0,0,1,-1,0,1,-0,0,-1,-0,0.729732053470798
2,2,1,1,121,1,1,1,-0,1,-1,0,1,-0,0,-1,0.866850134101696
2,2,1,1,122,1,1,1,1,-0,1,-1,-0,1,-0,0,0.569066113093868
2,2,1,1,123,1,1,1,1,1,-0,1,-0,-0,1,-0,0.796272947220132
2,2,1,1,124,1,1,1,1,1,1,-0,-0,-0,-0,1,0.552039191359654
2,2,1,1,125,0,0,0,1,1,1,1,-0,-0,-0,-0,0.590891941916198
2,2,1,1,126,1,1,0,-0,1,1,1,1,-0,-0,-0,0.909473808947951
2,2,1,1,127,0,1,0,1,-0,1,1,-0,1,-0,-0,0.487297893501818
2,2,1,1,128,0,1,0,0,1,-0,1,-1,-0,1,-0,0.77629392046947
2,2,1,1,129,0,0,1,0,0,1,-0,-1,-1,-0,1,0.558983789174818
2,2,1,1,130,0,1,0,-0,0,0,1,1,-1,-1,-0,1.02922850369941
2,2,1,1,131,0,1,0,0,-0,0,0,-1,1,-1,-1,0.767390728229657
2,2,1,1,132,1,0,1,0,0,-0,0,-1,-1,1,-1,0.801186134573072
2,2,1,1,133,1,0,1,-1,0,0,-0,0,-1,-1,1,0.481882637715898
2,2,1,1,134,1,0,1,-1,-1,0,0,0,0,-1,-1,0.483177345595323
2,2,1,1,135,1,0,1,-1,-1,-1,0,0,0,0,-1,0.569933611899614
2,2,1,1,136,1,0,1,-1,-1,-1,-1,0,0,0,0,0.49942388292402
2,2,1,1,137,1,1,0,-1,-1,-1,-1,0,0,0,0,0.780323938117363
2,2,1,1,138,1,1,0,1,-1,-1,-1,-0,0,0,0,0.536553698591888
2,2,1,1,139,1,0,1,1,1,-1,-1,-0,-0,0,0,0.620618199696764
2,2,1,1,140,0,0,1,-1,1,1,-1,0,-0,-0,0,0.520433338591829
2,2,1,1,141,1,0,1,-0,-1,1,1,1,0,-0,-0,0.426830254727975
2,2,1,1,142,0,1,0,-1,-0,-1,1,0,1,0,-0,0.474634248064831
2,2,1,1,143,0,1,0,0,-1,-0,-1,-1,0,1,0,0.425013441359624
2,2,1,1,144,1,0,1,0,0,-1,-0,-1,-1,0,1,0.781310629798099
2,2,1,1,145,0,0,1,-1,0,0,-1,0,-1,-1,0,0.682347109424882
2,2,1,1,146,0,1,0,-0,-1,0,0,1,0,-1,-1,0.611328430124559
2,2,1,1,147,1,1,0,0,-0,-1,0,-1,1,0,-1,0.963817553478293
2,2,1,1,148,0,1,0,1,0,-0,-1,-0,-1,1,0,0.682855636347085
2,2,1,1,149,0,1,0,0,1,0,-0,-1,-0,-1,1,0.652124274522066
2,2,1,1,150,1,0,1,0,0,1,0,-1,-1,-0,-1,0.526023261481896
2,2,1,1,151,1,0,1,-1,0,0,1,0,-1,-1,-0,0.517244564718567
2,2,1,1,152,1,0,1,-1,-1,0,0,0,0,-1,-1,1.09149246045854
2,2,1,1,153,1,0,1,-1,-1,-1,0,0,0,0,-1,0.624441464547999
2,2,1,1,154,1,0,1,-1,-1,-1,-1,0,0,0,0,0.469371902639978
2,2,1,1,155,0,1,0,-1,-1,-1,-1,0,0,0,0,0.548545130179264
2,2,1,1,156,1,0,1,0,-1,-1,-1,-1,0,0,0,0.72537986387033
2,2,1,1,157,1,0,1,-1,0,-1,-1,0,-1,0,0,1.05835638381541
2,2,1,1,158,1,0,1,-1,-1,0,-1,0,0,-1,0,0.633945397567004
2,2,1,1,159,1,0,1,-1,-1,-1,0,0,0,0,-1,0.567629664205015
2,2,1,1,160,1,0,1,-1,-1,-1,-1,0,0,0,0,0.450704318005592
3,2,1,1,1,0,0,0,NaN,NaN,NaN,NaN,NaN,NaN,NaN,NaN,1.03464787228768
3,2,1,1,2,1,1,1,-0,NaN,NaN,NaN,1,NaN,NaN,NaN,0.529611866406412
3,2,1,1,3,1,1,1,1,-0,NaN,NaN,-0,1,NaN,NaN,0.519896150568457
3,2,1,1,4,1,1,1,1,1,-0,NaN,-0,-0,1,NaN,0.605247962508656
3,2,1,1,5,1,1,1,1,1,1,-0,-0,-0,-0,1,0.667598358309988
3,2,1,1,6,1,1,1,1,1,1,1,-0,-0,-0,-0,0.762505891767432
3,2,1,1,7,1,1,1,1,1,1,1,-0,-0,-0,-0,0.658003889528118
3,2,1,1,8,1,1,1,1,1,1,1,-0,-0,-0,-0,0.578288657208759
3,2,1,1,9,1,1,1,1,1,1,1,-0,-0,-0,-0,0.629632752910766
3,2,1,1,10,1,1,1,1,1,1,1,-0,-0,-0,-0,0.605133614690203
3,2,1,1,11,1,1,1,1,1,1,1,-0,-0,-0,-0,1.0175740537652
3,2,1,1,12,1,1,1,1,1,1,1,-0,-0,-0,-0,0.582460683674071
3,2,1,1,13,1,1,1,1,1,1,1,-0,-0,-0,-0,0.778901290494105
3,2,1,1,14,1,1,1,1,1,1,1,-0,-0,-0,-0,0.572640611831957
3,2,1,1,15,1,1,1,1,1,1,1,-0,-0,-0,-0,0.66767109652028
3,2,1,1,16,0,1,1,1,1,1,1,-0,-0,-0,-0,0.596195438825816
3,2,1,1,17,1,1,1,0,1,1,1,-1,-0,-0,-0,0.629703992448412
3,2,1,1,18,1,1,1,1,0,1,1,-0,-1,-0,-0,0.554554127613301
3,2,1,1,19,1,1,1,1,1,0,1,-0,-0,-1,-0,0.60010239854455
3,2,1,1,20,1,1,1,1,1,1,0,-0,-0,-0,-1,0.69332046747877
3,2,1,1,21,1,1,1,1,1,1,1,-0,-0,-0,-0,0.486621775682579
3,2,1,1,22,1,1,1,1,1,1,1,-0,-0,-0,-0,0.582588403922273
3,2,1,1,23,1,1,1,1,1,1,1,-0,-0,-0,-0,0.495638251382843
3,2,1,1,24,1,1,1,1,1,1,1,-0,-0,-0,-0,0.540689860157727
3,2,1,1,25,1,1,1,1,1,1,1,-0,-0,-0,-0,0.704682587338539
3,2,1,1,26,1,1,1,1,1,1,1,-0,-0,-0,-0,0.530816866321402
3,2,1,1,27,1,1,1,1,1,1,1,-0,-0,-0,-0,0.610142842630012
3,2,1,1,28,1,1,1,1,1,1,1,-0,-0,-0,-0,0.850277748149892
3,2,1,1,29,1,1,1,1,1,1,1,-0,-0,-0,-0,0.64046876347129
3,2,1,1,30,1,1,1,1,1,1,1,-0,-0,-0,-0,0.633061828813879
3,2,1,1,31,0,1,1,1,1,1,1,-0,-0,-0,-0,0.721500671645117
3,2,1,1,32,1,1,1,0,1,1,1,-1,-0,-0,-0,0.6231039897757
3,2,1,1,33,1,1,1,1,0,1,1,-0,-1,-0,-0,0.565873988940439
3,2,1,1,34,1,1,1,1,1,0,1,-0,-0,-1,-0,0.581849303460331
3,2,1,1,35,1,1,1,1,1,1,0,-0,-0,-0,-1,0.68283933370185
3,2,1,1,36,0,1,1,1,1,1,1,-0,-0,-0,-0,0.677866853791784
3,2,1,1,37,1,1,1,0,1,1,1,-1,-0,-0,-0,0.627975848161441
3,2,1,1,38,1,1,1,1,0,1,1,-0,-1,-0,-0,0.717644255759296
3,2,1,1,39,1,1,1,1,1,0,1,-0,-0,-1,-0,0.615591441362994
3,2,1,1,40,1,1,1,1,1,1,0,-0,-0,-0,-1,0.731767011846387
3,2,1,1,41,1,1,1,1,1,1,1,-0,-0,-0,-0,0.608032241658293
3,2,1,1,42,0,1,1,1,1,1,1,-0,-0,-0,-0,0.745948255560506
3,2,1,1,43,1,1,1,0,1,1,1,-1,-0,-0,-0,0.605049721818432
3,2,1,1,44,1,1,1,1,0,1,1,-0,-1,-0,-0,0.577925565301484
3,2,1,1,45,1,1,1,1,1,0,1,-0,-0,-1,-0,0.752372144419496
3,2,1,1,46,0,1,1,1,1,1,0,-0,-0,-0,-1,0.68062209413074
3,2,1,1,47,1,1,1,0,1,1,1,-1,-0,-0,-0,0.639611468097428
3,2,1,1,48,1,1,1,1,0,1,1,-0,-1,-0,-0,0.744882993334613
3,2,1,1,49,0,1,1,1,1,0,1,-0,-0,-1,-0,0.678100754514162
3,2,1,1,50,1,1,1,0,1,1,0,-1,-0,-0,-1,0.51987411157279
3,2,1,1,51,1,1,1,1,0,1,1,-0,-1,-0,-0,0.74127027216673
3,2,1,1,52,1,1,1,1,1,0,1,-0,-0,-1,-0,0.64907679314274
3,2,1,1,53,1,1,1,1,1,1,0,-0,-0,-0,-1,0.811495185871536
3,2,1,1,54,0,1,1,1,1,1,1,-0,-0,-0,-0,0.728721525070796
3,2,1,1,55,1,1,1,0,1,1,1,-1,-0,-0,-0,0.620996917446973
3,2,1,1,56,1,1,0,1,0,1,1,-0,-1,-0,-0,0.65589017091952
3,2,1,1,57,0,1,0,1,1,0,1,-0,-0,-1,-0,0.608702834611904
3,2,1,1,58,0,1,0,0,1,1,0,-1,-0,-0,-1,0.558229422083969
3,2,1,1,59,1,0,1,0,0,1,1,-1,-1,-0,-0,1.39040108766312
3,2,1,1,60,1,0,1,-1,0,0,1,0,-1,-1,-0,0.571643699731794
3,2,1,1,61,1,0,1,-1,-1,0,0,0,0,-1,-1,0.841638943076759
3,2,1,1,62,1,0,1,-1,-1,-1,0,0,0,0,-1,0.68530762100454
3,2,1,1,63,1,0,1,-1,-1,-1,-1,0,0,0,0,0.737326189162559
3,2,1,1,64,1,0,1,-1,-1,-1,-1,0,0,0,0,0.811419841276802
3,2,1,1,65,1,0,1,-1,-1,-1,-1,0,0,0,0,1.02855517016724
3,2,1,1,66,1,0,1,-1,-1,-1,-1,0,0,0,0,1.01062536213794
3,2,1,1,67,1,0,1,-1,-1,-1,-1,0,0,0,0,0.80039433111051
3,2,1,1,68,1,0,1,-1,-1,-1,-1,0,0,0,0,0.835870813492875
3,2,1,1,69,0,0,1,-1,-1,-1,-1,0,0,0,0,1.20742954237721
3,2,1,1,70,1,0,1,-0,-1,-1,-1,1,0,0,0,0.614469204550915
3,2,1,1,71,0,0,0,-1,-0,-1,-1,0,1,0,0,1.13630015538001
3,2,1,1,72,0,0,0,-0,-1,-0,-1,1,0,1,0,1.19286060849117
3,2,1,1,73,1,0,0,-0,-0,-1,-0,1,1,0,1,0.4948457420669
3,2,1,1,74,0,0,0,-1,-0,-0,-1,0,1,1,0,0.665151691644496
3,2,1,1,75,1,1,1,-0,-1,-0,-0,1,0,1,1,0.620397982389477
3,2,1,1,76,1,1,1,1,-0,-1,-0,-0,1,0,1,0.602455142432518
3,2,1,1,77,0,0,0,1,1,-0,-1,-0,-0,1,0,0.698987106075947
3,2,1,1,78,0,0,0,-0,1,1,-0,1,-0,-0,1,1.05999581207288
3,2,1,1,79,1,1,1,-0,-0,1,1,1,1,-0,-0,0.653380550014845
3,2,1,1,80,1,1,1,1,-0,-0,1,-0,1,1,-0,0.614414926571044
3,2,1,1,81,1,1,1,1,1,-0,-0,-0,-0,1,1,0.650539769769239
3,2,1,1,82,1,1,1,1,1,1,-0,-0,-0,-0,1,0.784140160727475
3,2,1,1,83,0,0,0,1,1,1,1,-0,-0,-0,-0,0.905527921073372
3,2,1,1,84,1,1,1,-0,1,1,1,1,-0,-0,-0,0.594328269260586
3,2,1,1,85,0,1,1,1,-0,1,1,-0,1,-0,-0,0.547358814093968
3,2,1,1,86,0,0,0,0,1,-0,1,-1,-0,1,-0,1.04653502581277
3,2,1,1,87,0,0,0,-0,0,1,-0,1,-1,-0,1,1.11315749085225
3,2,1,1,88,1,1,1,-0,-0,0,1,1,1,-1,-0,1.07677103135939
3,2,1,1,89,1,1,1,1,-0,-0,0,-0,1,1,-1,0.581568041703576
3,2,1,1,90,1,1,1,1,1,-0,-0,-0,-0,1,1,1.10059908008043
3,2,1,1,91,1,1,0,1,1,1,-0,-0,-0,-0,1,0.900610210013838
3,2,1,1,92,0,1,0,1,1,1,1,-0,-0,-0,-0,0.637744301204293
3,2,1,1,93,0,1,0,0,1,1,1,-1,-0,-0,-0,0.814007312916146
3,2,1,1,94,1,1,0,0,0,1,1,-1,-1,-0,-0,1.1765552152774
3,2,1,1,95,0,1,0,1,0,0,1,-0,-1,-1,-0,0.72019593771256
3,2,1,1,96,1,0,1,0,1,0,0,-1,-0,-1,-1,0.661652551083534
3,2,1,1,97,1,0,1,-1,0,1,0,0,-1,-0,-1,0.704316104456666
3,2,1,1,98,1,0,1,-1,-1,0,1,0,0,-1,-0,0.515939970593536
3,2,1,1,99,1,0,1,-1,-1,-1,0,0,0,0,-1,0.720571825972002
3,2,1,1,100,0,0,0,-1,-1,-1,-1,0,0,0,0,0
3,2,1,1,101,0,1,0,NaN,-1,-1,-1,NaN,0,0,0,1.02688839891016
3,2,1,1,102,1,0,1,0,NaN,-1,-1,-1,NaN,0,0,1.01055548594195
3,2,1,1,103,1,0,1,-1,0,NaN,-1,0,-1,NaN,0,0.591100090219697
3,2,1,1,104,1,0,1,-1,-1,0,NaN,0,0,-1,NaN,0.624899335705777
3,2,1,1,105,1,0,1,-1,-1,-1,0,0,0,0,-1,0.653313392811469
3,2,1,1,106,0,0,0,-1,-1,-1,-1,0,0,0,0,0.778335680082819
3,2,1,1,107,0,0,0,-0,-1,-1,-1,1,0,0,0,0.856778615274379
3,2,1,1,108,0,1,1,-0,-0,-1,-1,1,1,0,0,1.04103928625045
3,2,1,1,109,0,0,0,0,-0,-0,-1,-1,1,1,0,0.692271640518811
3,2,1,1,110,1,1,1,-0,0,-0,-0,1,-1,1,1,0.697569101632325
3,2,1,1,111,0,1,1,1,-0,0,-0,-0,1,-1,1,0.555368542931319
3,2,1,1,112,1,1,1,0,1,-0,0,-1,-0,1,-1,0.815567046596698
3,2,1,1,113,1,1,1,1,0,1,-0,-0,-1,-0,1,0.672411909177754
3,2,1,1,114,0,0,0,1,1,0,1,-0,-0,-1,-0,1.00276651529748
3,2,1,1,115,1,1,1,-0,1,1,0,1,-0,-0,-1,0.62284629108035
3,2,1,1,116,1,1,1,1,-0,1,1,-0,1,-0,-0,0.704609455833634
3,2,1,1,117,1,1,1,1,1,-0,1,-0,-0,1,-0,1.28114021352303
3,2,1,1,118,1,1,1,1,1,1,-0,-0,-0,-0,1,0.494806934320877
3,2,1,1,119,0,1,1,1,1,1,1,-0,-0,-0,-0,0.752236988288132
3,2,1,1,120,1,1,1,0,1,1,1,-1,-0,-0,-0,0.878296278215203
3,2,1,1,121,1,1,1,1,0,1,1,-0,-1,-0,-0,0.643508686280256
3,2,1,1,122,1,1,1,1,1,0,1,-0,-0,-1,-0,0.809300486191205
3,2,1,1,123,1,1,1,1,1,1,0,-0,-0,-0,-1,0.713290694535317
3,2,1,1,124,1,1,1,1,1,1,1,-0,-0,-0,-0,0.922698716856758
3,2,1,1,125,1,1,1,1,1,1,1,-0,-0,-0,-0,0.821373064005456
3,2,1,1,126,0,0,0,1,1,1,1,-0,-0,-0,-0,0
3,2,1,1,127,0,1,0,NaN,1,1,1,NaN,-0,-0,-0,1.01889532588211
3,2,1,1,128,1,0,1,0,NaN,1,1,-1,NaN,-0,-0,0.546527896012776
3,2,1,1,129,0,0,1,-1,0,NaN,1,0,-1,NaN,-0,0.870565766128493
3,2,1,1,130,0,0,1,-0,-1,0,NaN,1,0,-1,NaN,0.685056518470446
3,2,1,1,131,1,0,1,-0,-0,-1,0,1,1,0,-1,0.551228457052275
3,2,1,1,132,1,0,1,-1,-0,-0,-1,0,1,1,0,0.987272078926253
3,2,1,1,133,1,0,1,-1,-1,-0,-0,0,0,1,1,0.754563154729112
3,2,1,1,134,0,1,0,-1,-1,-1,-0,0,0,0,1,1.30815745843938
3,2,1,1,135,1,0,1,0,-1,-1,-1,-1,0,0,0,0.896403074866612
3,2,1,1,136,1,0,1,-1,0,-1,-1,0,-1,0,0,0.533327632700093
3,2,1,1,137,1,0,1,-1,-1,0,-1,0,0,-1,0,0.818400566387936
3,2,1,1,138,0,0,1,-1,-1,-1,0,0,0,0,-1,0.709111057089103
3,2,1,1,139,1,0,1,-0,-1,-1,-1,1,0,0,0,0.845966124337792
3,2,1,1,140,1,0,1,-1,-0,-1,-1,0,1,0,0,0.706263495565508
3,2,1,1,141,1,0,1,-1,-1,-0,-1,0,0,1,0,1.25692086344861
3,2,1,1,142,1,0,1,-1,-1,-1,-0,0,0,0,1,0.996102964931197
3,2,1,1,143,0,0,0,-1,-1,-1,-1,0,0,0,0,0
3,2,1,1,144,1,0,1,NaN,-1,-1,-1,NaN,0,0,0,0.922876043974611
3,2,1,1,145,1,0,1,-1,NaN,-1,-1,0,NaN,0,0,0.582577304396182
3,2,1,1,146,1,0,1,-1,-1,NaN,-1,0,0,NaN,0,0.729569405042639
3,2,1,1,147,0,0,0,-1,-1,-1,NaN,0,0,0,NaN,0
3,2,1,1,148,0,0,1,NaN,-1,-1,-1,NaN,0,0,0,0.594000761866482
3,2,1,1,149,0,0,1,-0,NaN,-1,-1,1,NaN,0,0,0.523505147612013
3,2,1,1,150,1,1,0,-0,-0,NaN,-1,1,1,NaN,0,0.456612408066576
3,2,1,1,151,1,1,0,1,-0,-0,NaN,-0,1,1,NaN,0.833114237548216
3,2,1,1,152,0,1,0,1,1,-0,-0,-0,-0,1,1,0.65729538101732
3,2,1,1,153,1,1,0,0,1,1,-0,-1,-0,-0,1,0.641136236112288
3,2,1,1,154,0,1,0,1,0,1,1,-0,-1,-0,-0,0.768261956794959
3,2,1,1,155,0,1,0,0,1,0,1,-1,-0,-1,-0,0.730647308238986
3,2,1,1,156,1,0,1,0,0,1,0,-1,-1,-0,-1,0.674630279183475
3,2,1,1,157,1,0,1,-1,0,0,1,0,-1,-1,-0,0.653285800210142
3,2,1,1,158,1,0,1,-1,-1,0,0,0,0,-1,-1,0.886633098425591
3,2,1,1,159,1,0,1,-1,-1,-1,0,0,0,0,-1,0.724683309108514
3,2,1,1,160,1,0,1,-1,-1,-1,-1,0,0,0,0,0.999410801463455
4,2,1,1,1,0,0,0,NaN,NaN,NaN,NaN,NaN,NaN,NaN,NaN,0.940460570600408
4,2,1,1,2,0,0,0,-0,NaN,NaN,NaN,1,NaN,NaN,NaN,0.559887841503951
4,2,1,1,3,1,1,1,-0,-0,NaN,NaN,1,1,NaN,NaN,0.6416642913955
4,2,1,1,4,1,1,1,1,-0,-0,NaN,-0,1,1,NaN,0.688867070545712
4,2,1,1,5,1,1,1,1,1,-0,-0,-0,-0,1,1,0.615906761921906
4,2,1,1,6,1,1,1,1,1,1,-0,-0,-0,-0,1,0.630208035379837
4,2,1,1,7,1,1,1,1,1,1,1,-0,-0,-0,-0,0.621930673251882
4,2,1,1,8,1,1,1,1,1,1,1,-0,-0,-0,-0,0.616326506696169
4,2,1,1,9,1,1,1,1,1,1,1,-0,-0,-0,-0,0.459839702403769
4,2,1,1,10,1,1,1,1,1,1,1,-0,-0,-0,-0,0.773619674267138
4,2,1,1,11,0,1,1,1,1,1,1,-0,-0,-0,-0,0.4529437119063
4,2,1,1,12,1,1,1,0,1,1,1,-1,-0,-0,-0,0.469474334367078
4,2,1,1,13,1,1,1,1,0,1,1,-0,-1,-0,-0,0.656499790152338
4,2,1,1,14,1,1,1,1,1,0,1,-0,-0,-1,-0,0.626060725646312
4,2,1,1,15,1,1,1,1,1,1,0,-0,-0,-0,-1,0.588990284497413
4,2,1,1,16,1,1,1,1,1,1,1,-0,-0,-0,-0,0.547450633888729
4,2,1,1,17,1,1,1,1,1,1,1,-0,-0,-0,-0,0.636801098026808
4,2,1,1,18,1,1,1,1,1,1,1,-0,-0,-0,-0,0.594285791140464
4,2,1,1,19,1,1,1,1,1,1,1,-0,-0,-0,-0,0.668432783428216
4,2,1,1,20,0,1,1,1,1,1,1,-0,-0,-0,-0,0.560048540753087
4,2,1,1,21,1,1,1,0,1,1,1,-1,-0,-0,-0,0.52630968810081
4,2,1,1,22,1,1,1,1,0,1,1,-0,-1,-0,-0,0.620220284430616
4,2,1,1,23,1,1,1,1,1,0,1,-0,-0,-1,-0,0.66782665138453
4,2,1,1,24,1,1,1,1,1,1,0,-0,-0,-0,-1,0.531025322123241
4,2,1,1,25,0,1,1,1,1,1,1,-0,-0,-0,-0,0.54661326454243
4,2,1,1,26,1,1,1,0,1,1,1,-1,-0,-0,-0,0.75091771913776
4,2,1,1,27,0,1,1,1,0,1,1,-0,-1,-0,-0,0.671032073018978
4,2,1,1,28,1,1,1,0,1,0,1,-1,-0,-1,-0,0.604034259717082
4,2,1,1,29,1,1,1,1,0,1,0,-0,-1,-0,-1,0.552314278363156
4,2,1,1,30,1,1,1,1,1,0,1,-0,-0,-1,-0,0.545812344618753
4,2,1,1,31,1,1,1,1,1,1,0,-0,-0,-0,-1,0.490940505706931
4,2,1,1,32,1,1,1,1,1,1,1,-0,-0,-0,-0,0.856536233894076
4,2,1,1,33,1,1,1,1,1,1,1,-0,-0,-0,-0,0.511938049681703
4,2,1,1,34,0,1,1,1,1,1,1,-0,-0,-0,-0,0.651773061577842
4,2,1,1,35,1,1,1,0,1,1,1,-1,-0,-0,-0,0.644168449930476
4,2,1,1,36,1,1,1,1,0,1,1,-0,-1,-0,-0,0.532167211224987
4,2,1,1,37,1,1,1,1,1,0,1,-0,-0,-1,-0,0.515610852959071
4,2,1,1,38,1,1,1,1,1,1,0,-0,-0,-0,-1,0.512661805296375
4,2,1,1,39,0,1,1,1,1,1,1,-0,-0,-0,-0,0.515447146332008
4,2,1,1,40,0,1,1,0,1,1,1,-1,-0,-0,-0,0.572822506884222
4,2,1,1,41,0,0,0,0,0,1,1,-1,-1,-0,-0,0.640314951013352
4,2,1,1,42,1,1,1,-0,0,0,1,1,-1,-1,-0,0.91041446782765
4,2,1,1,43,0,1,1,1,-0,0,0,-0,1,-1,-1,0.664841620776315
4,2,1,1,44,1,1,1,0,1,-0,0,-1,-0,1,-1,0.617694156998368
4,2,1,1,45,1,1,1,1,0,1,-0,-0,-1,-0,1,0.582389701066859
4,2,1,1,46,1,1,1,1,1,0,1,-0,-0,-1,-0,0.688548300831826
4,2,1,1,47,1,1,1,1,1,1,0,-0,-0,-0,-1,0.716639503248189
4,2,1,1,48,1,1,1,1,1,1,1,-0,-0,-0,-0,0.593977793186241
4,2,1,1,49,0,1,1,1,1,1,1,-0,-0,-0,-0,0.608518794442716
4,2,1,1,50,1,1,1,0,1,1,1,-1,-0,-0,-0,0.645622131295568
4,2,1,1,51,1,1,1,1,0,1,1,-0,-1,-0,-0,0.744877111847927
4,2,1,1,52,1,1,1,1,1,0,1,-0,-0,-1,-0,0.578734353280197
4,2,1,1,53,1,1,1,1,1,1,0,-0,-0,-0,-1,0.5976681214579
4,2,1,1,54,1,1,1,1,1,1,1,-0,-0,-0,-0,0.950325407332457
4,2,1,1,55,1,1,1,1,1,1,1,-0,-0,-0,-0,0.563870848147417
4,2,1,1,56,0,1,0,1,1,1,1,-0,-0,-0,-0,0.601763438636226
4,2,1,1,57,1,1,0,0,1,1,1,-1,-0,-0,-0,0.641782704568868
4,2,1,1,58,0,1,0,1,0,1,1,-0,-1,-0,-0,0.514209392041266
4,2,1,1,59,1,0,1,0,1,0,1,-1,-0,-1,-0,0.666363967934558
4,2,1,1,60,1,0,1,-1,0,1,0,0,-1,-0,-1,0.67360788701626
4,2,1,1,61,1,0,1,-1,-1,0,1,0,0,-1,-0,1.02276424160573
4,2,1,1,62,1,0,1,-1,-1,-1,0,0,0,0,-1,0.535532010867428
4,2,1,1,63,1,0,1,-1,-1,-1,-1,0,0,0,0,0.724709486607026
4,2,1,1,64,1,0,1,-1,-1,-1,-1,0,0,0,0,0.5456833905846
4,2,1,1,65,0,1,0,-1,-1,-1,-1,0,0,0,0,1.05640534444501
4,2,1,1,66,1,0,1,0,-1,-1,-1,-1,0,0,0,0.651802636468346
4,2,1,1,67,0,0,1,-1,0,-1,-1,0,-1,0,0,0.597003596156355
4,2,1,1,68,1,0,1,-0,-1,0,-1,1,0,-1,0,0.489458181739792
4,2,1,1,69,1,0,1,-1,-0,-1,0,0,1,0,-1,0.493435576949196
4,2,1,1,70,1,0,1,-1,-1,-0,-1,0,0,1,0,0.450625151037457
4,2,1,1,71,0,0,0,-1,-1,-1,-0,0,0,0,1,0.544448180201471
4,2,1,1,72,0,0,0,-0,-1,-1,-1,1,0,0,0,0.530029910046323
4,2,1,1,73,0,0,0,-0,-0,-1,-1,1,1,0,0,0.570378521305429
4,2,1,1,74,0,1,1,-0,-0,-0,-1,1,1,1,0,0.457893044268531
4,2,1,1,75,1,1,1,0,-0,-0,-0,-1,1,1,1,0.524108379891914
4,2,1,1,76,1,1,1,1,0,-0,-0,-0,-1,1,1,0.784981633942152
4,2,1,1,77,0,0,0,1,1,0,-0,-0,-0,-1,1,0
4,2,1,1,78,0,0,0,NaN,1,1,0,NaN,-0,-0,-1,0.534774302288497
4,2,1,1,79,1,1,1,-0,NaN,1,1,1,NaN,-0,-0,0.841887861553914
4,2,1,1,80,0,1,1,1,-0,NaN,1,-0,1,NaN,-0,0.583115579221158
4,2,1,1,81,1,1,1,0,1,-0,NaN,-1,-0,1,NaN,0.690030755453336
4,2,1,1,82,0,1,1,1,0,1,-0,-0,-1,-0,1,0.566101280141083
4,2,1,1,83,0,1,1,0,1,0,1,-1,-0,-1,-0,0.582387370349352
4,2,1,1,84,1,1,1,0,0,1,0,-1,-1,-0,-1,1.19467792584419
4,2,1,1,85,1,1,1,1,0,0,1,-0,-1,-1,-0,0.437076153496491
4,2,1,1,86,1,1,1,1,1,0,0,-0,-0,-1,-1,0.633698065254066
4,2,1,1,87,0,1,1,1,1,1,0,-0,-0,-0,-1,0.803177221449914
4,2,1,1,88,1,1,1,0,1,1,1,-1,-0,-0,-0,0.569291329060434
4,2,1,1,89,0,1,1,1,0,1,1,-0,-1,-0,-0,0.581150836719644
4,2,1,1,90,1,0,0,0,1,0,1,-1,-0,-1,-0,0.524900012363105
4,2,1,1,91,1,0,1,-1,0,1,0,0,-1,-0,-1,0.55947926412864
4,2,1,1,92,1,0,1,-1,-1,0,1,0,0,-1,-0,0.758572608800023
4,2,1,1,93,0,0,1,-1,-1,-1,0,0,0,0,-1,1.23783120990174
4,2,1,1,94,1,0,1,-0,-1,-1,-1,1,0,0,0,0.603406617567998
4,2,1,1,95,1,0,1,-1,-0,-1,-1,0,1,0,0,0.930969926887883
4,2,1,1,96,0,0,1,-1,-1,-0,-1,0,0,1,0,0.758083975352747
4,2,1,1,97,1,0,1,-0,-1,-1,-0,1,0,0,1,0.7801592406704
4,2,1,1,98,1,0,1,-1,-0,-1,-1,0,1,0,0,0.802018175257217
4,2,1,1,99,1,0,1,-1,-1,-0,-1,0,0,1,0,0.688603355899431
4,2,1,1,100,1,0,1,-1,-1,-1,-0,0,0,0,1,0.715820233305749
4,2,1,1,101,1,0,1,-1,-1,-1,-1,0,0,0,0,0.804963782145933
4,2,1,1,102,1,0,1,-1,-1,-1,-1,0,0,0,0,0.579613881054684
4,2,1,1,103,1,0,1,-1,-1,-1,-1,0,0,0,0,0.929032721945077
4,2,1,1,104,1,0,1,-1,-1,-1,-1,0,0,0,0,0.604079455598367
4,2,1,1,105,1,0,1,-1,-1,-1,-1,0,0,0,0,0.71917344952908
4,2,1,1,106,0,0,0,-1,-1,-1,-1,0,0,0,0,0.603773908655967
4,2,1,1,107,0,0,0,-0,-1,-1,-1,1,0,0,0,0.586791545258166
4,2,1,1,108,1,1,1,-0,-0,-1,-1,1,1,0,0,1.12357824195351
4,2,1,1,109,0,1,1,1,-0,-0,-1,-0,1,1,0,0.671534452857486
4,2,1,1,110,1,1,1,0,1,-0,-0,-1,-0,1,1,0.570250241592476
4,2,1,1,111,1,1,1,1,0,1,-0,-0,-1,-0,1,0.657084542410303
4,2,1,1,112,1,1,1,1,1,0,1,-0,-0,-1,-0,0.750960659484917
4,2,1,1,113,0,1,1,1,1,1,0,-0,-0,-0,-1,0.658377103493876
4,2,1,1,114,1,1,1,0,1,1,1,-1,-0,-0,-0,0.609963769447859
4,2,1,1,115,1,1,1,1,0,1,1,-0,-1,-0,-0,0.746879369052294
4,2,1,1,116,1,1,1,1,1,0,1,-0,-0,-1,-0,0.761531814050613
4,2,1,1,117,1,1,1,1,1,1,0,-0,-0,-0,-1,0.637326903001849
4,2,1,1,118,1,1,1,1,1,1,1,-0,-0,-0,-0,0.580809892937395
4,2,1,1,119,1,1,1,1,1,1,1,-0,-0,-0,-0,0.693974164952124
4,2,1,1,120,1,1,1,1,1,1,1,-0,-0,-0,-0,0.637919962641718
4,2,1,1,121,1,1,1,1,1,1,1,-0,-0,-0,-0,0.561831241980144
4,2,1,1,122,1,1,1,1,1,1,1,-0,-0,-0,-0,0.709467528001369
4,2,1,1,123,1,1,1,1,1,1,1,-0,-0,-0,-0,0.749445078592544
4,2,1,1,124,0,1,1,1,1,1,1,-0,-0,-0,-0,0.59712156824753
4,2,1,1,125,1,1,1,0,1,1,1,-1,-0,-0,-0,0.522209296139408
4,2,1,1,126,0,1,0,1,0,1,1,-0,-1,-0,-0,0.778022358184899
4,2,1,1,127,1,1,0,0,1,0,1,-1,-0,-1,-0,0.497255887110441
4,2,1,1,128,0,1,0,1,0,1,0,-0,-1,-0,-1,0.66827362796721
4,2,1,1,129,1,0,1,0,1,0,1,-1,-0,-1,-0,0.516190244065001
4,2,1,1,130,1,0,1,-1,0,1,0,0,-1,-0,-1,0.689497331787607
4,2,1,1,131,1,0,1,-1,-1,0,1,0,0,-1,-0,0.502007882671933
4,2,1,1,132,1,0,1,-1,-1,-1,0,0,0,0,-1,0.641750510585553
4,2,1,1,133,1,0,1,-1,-1,-1,-1,0,0,0,0,0.775389050136255
4,2,1,1,134,1,0,1,-1,-1,-1,-1,0,0,0,0,0.577831185174546
4,2,1,1,135,1,0,1,-1,-1,-1,-1,0,0,0,0,0.530338326695528
4,2,1,1,136,1,0,1,-1,-1,-1,-1,0,0,0,0,0.48578645109319
4,2,1,1,137,1,0,1,-1,-1,-1,-1,0,0,0,0,0.512012762977974
4,2,1,1,138,1,0,1,-1,-1,-1,-1,0,0,0,0,0.575688448327128
4,2,1,1,139,1,0,1,-1,-1,-1,-1,0,0,0,0,0.798753977424894
4,2,1,1,140,1,0,1,-1,-1,-1,-1,0,0,0,0,0.774814312780109
4,2,1,1,141,1,0,1,-1,-1,-1,-1,0,0,0,0,0.555072861086046
4,2,1,1,142,0,0,1,-1,-1,-1,-1,0,0,0,0,0.548223988518657
4,2,1,1,143,0,0,1,-0,-1,-1,-1,1,0,0,0,0.621098769647688
4,2,1,1,144,1,0,1,-0,-0,-1,-1,1,1,0,0,0.794932817511835
4,2,1,1,145,1,0,1,-1,-0,-0,-1,0,1,1,0,0.547115241057327
4,2,1,1,146,1,0,1,-1,-1,-0,-0,0,0,1,1,0.744097907867399
4,2,1,1,147,1,0,1,-1,-1,-1,-0,0,0,0,1,0.822200860444354
4,2,1,1,148,1,0,1,-1,-1,-1,-1,0,0,0,0,0.746379768365841
4,2,1,1,149,1,0,1,-1,-1,-1,-1,0,0,0,0,0.53627559011511
4,2,1,1,150,1,0,1,-1,-1,-1,-1,0,0,0,0,0.656269197097572
4,2,1,1,151,1,0,1,-1,-1,-1,-1,0,0,0,0,0.975991557621455
4,2,1,1,152,1,0,1,-1,-1,-1,-1,0,0,0,0,0.722732240764344
4,2,1,1,153,1,0,1,-1,-1,-1,-1,0,0,0,0,0.751981308142604
4,2,1,1,154,1,0,1,-1,-1,-1,-1,0,0,0,0,0.542517802007751
4,2,1,1,155,1,0,1,-1,-1,-1,-1,0,0,0,0,0.634961845394173
4,2,1,1,156,1,0,1,-1,-1,-1,-1,0,0,0,0,0.47783684539354
4,2,1,1,157,1,0,1,-1,-1,-1,-1,0,0,0,0,1.21735703993818
4,2,1,1,158,1,0,1,-1,-1,-1,-1,0,0,0,0,0.507701418479883
4,2,1,1,159,1,0,1,-1,-1,-1,-1,0,0,0,0,0.516668570226102
4,2,1,1,160,1,0,1,-1,-1,-1,-1,0,0,0,0,0.627700967039345
5,2,1,1,1,1,0,1,NaN,NaN,NaN,NaN,NaN,NaN,NaN,NaN,0.929399831584988
5,2,1,1,2,1,0,1,-1,NaN,NaN,NaN,0,NaN,NaN,NaN,0.795133413642361
5,2,1,1,3,0,0,1,-1,-1,NaN,NaN,0,0,NaN,NaN,0.508901065290729
5,2,1,1,4,1,0,1,-0,-1,-1,NaN,1,0,0,NaN,0.319612980642432
5,2,1,1,5,0,1,0,-1,-0,-1,-1,0,1,0,0,0.838684647515038
5,2,1,1,6,0,1,0,0,-1,-0,-1,-1,0,1,0,0.702166678250705
5,2,1,1,7,0,1,0,0,0,-1,-0,-1,-1,0,1,0.978111832814875
5,2,1,1,8,0,1,0,0,0,0,-1,-1,-1,-1,0,1.09220674929225
5,2,1,1,9,0,0,1,0,0,0,0,-1,-1,-1,-1,1.02798808498255
5,2,1,1,10,0,1,0,-0,0,0,0,1,-1,-1,-1,0.42270121131719
5,2,1,1,11,1,1,0,0,-0,0,0,-1,1,-1,-1,0.890139853840083
5,2,1,1,12,0,1,0,1,0,-0,0,-0,-1,1,-1,0.742031678702006
5,2,1,1,13,0,1,0,0,1,0,-0,-1,-0,-1,1,0.505747577198463
5,2,1,1,14,1,0,1,0,0,1,0,-1,-1,-0,-1,0.830381118154264
5,2,1,1,15,1,0,1,-1,0,0,1,0,-1,-1,-0,0.528473047941588
5,2,1,1,16,1,0,1,-1,-1,0,0,0,0,-1,-1,0.429693698811434
5,2,1,1,17,0,0,1,-1,-1,-1,0,0,0,0,-1,0.544364423363049
5,2,1,1,18,0,1,0,-0,-1,-1,-1,1,0,0,0,0.959518330821766
5,2,1,1,19,1,0,1,0,-0,-1,-1,-1,1,0,0,1.02845999746046
5,2,1,1,20,1,0,1,-1,0,-0,-1,0,-1,1,0,0.503752202258283
5,2,1,1,21,1,0,1,-1,-1,0,-0,0,0,-1,1,0.57047534593562
5,2,1,1,22,0,1,0,-1,-1,-1,0,0,0,0,-1,0.403967855149858
5,2,1,1,23,1,0,1,0,-1,-1,-1,-1,0,0,0,0.588722416886867
5,2,1,1,24,1,0,1,-1,0,-1,-1,0,-1,0,0,0.575098494290842
5,2,1,1,25,0,0,1,-1,-1,0,-1,0,0,-1,0,0.568812622426549
5,2,1,1,26,1,0,1,-0,-1,-1,0,1,0,0,-1,0.377407781167676
5,2,1,1,27,1,0,1,-1,-0,-1,-1,0,1,0,0,0.432537762020502
5,2,1,1,28,0,1,0,-1,-1,-0,-1,0,0,1,0,0.540970638339104
5,2,1,1,29,0,1,0,0,-1,-1,-0,-1,0,0,1,0.697038357821611
5,2,1,1,30,1,0,1,0,0,-1,-1,-1,-1,0,0,0.788192714052229
5,2,1,1,31,1,0,1,-1,0,0,-1,0,-1,-1,0,0.544562972789663
5,2,1,1,32,0,0,1,-1,-1,0,0,0,0,-1,-1,0.526589929192141
5,2,1,1,33,0,1,0,-0,-1,-1,0,1,0,0,-1,0.949877266666817
5,2,1,1,34,0,1,0,0,-0,-1,-1,-1,1,0,0,0.582051824995688
5,2,1,1,35,1,0,1,0,0,-0,-1,-1,-1,1,0,0.579112324024891
5,2,1,1,36,0,0,1,-1,0,0,-0,0,-1,-1,1,0.444011768991004
5,2,1,1,37,1,0,1,-0,-1,0,0,1,0,-1,-1,0.667716531054793
5,2,1,1,38,0,1,0,-1,-0,-1,0,0,1,0,-1,0.744005540982471
5,2,1,1,39,1,0,1,0,-1,-0,-1,-1,0,1,0,0.626167466859897
5,2,1,1,40,1,0,1,-1,0,-1,-0,0,-1,0,1,0.582311998556406
5,2,1,1,41,0,0,1,-1,-1,0,-1,0,0,-1,0,0.682768629056227
5,2,1,1,42,1,0,1,-0,-1,-1,0,1,0,0,-1,0.484400956021545
5,2,1,1,43,0,1,0,-1,-0,-1,-1,0,1,0,0,0.548689497462192
5,2,1,1,44,1,0,1,0,-1,-0,-1,-1,0,1,0,0.597200822024888
5,2,1,1,45,0,0,1,-1,0,-1,-0,0,-1,0,1,0.502948344421611
5,2,1,1,46,1,0,1,-0,-1,0,-1,1,0,-1,0,0.66076292199773
5,2,1,1,47,1,0,1,-1,-0,-1,0,0,1,0,-1,0.37193020807922
5,2,1,1,48,0,1,0,-1,-1,-0,-1,0,0,1,0,0.555121980478589
5,2,1,1,49,0,0,1,0,-1,-1,-0,-1,0,0,1,1.01103648721346
5,2,1,1,50,1,0,1,-0,0,-1,-1,1,-1,0,0,0.365943866725047
5,2,1,1,51,1,0,1,-1,-0,0,-1,0,1,-1,0,0.404740944192554
5,2,1,1,52,0,1,0,-1,-1,-0,0,0,0,1,-1,0.324446848069101
5,2,1,1,53,1,0,1,0,-1,-1,-0,-1,0,0,1,0.472471620090801
5,2,1,1,54,1,0,1,-1,0,-1,-1,0,-1,0,0,0.536134710837587
5,2,1,1,55,0,0,1,-1,-1,0,-1,0,0,-1,0,0.565720084808845
5,2,1,1,56,0,0,0,-0,-1,-1,0,1,0,0,-1,0.675497350139267
5,2,1,1,57,1,1,1,-0,-0,-1,-1,1,1,0,0,0.553072567090112
5,2,1,1,58,1,1,1,1,-0,-0,-1,-0,1,1,0,0.441183940774181
5,2,1,1,59,1,1,1,1,1,-0,-0,-0,-0,1,1,0.483384271589102
5,2,1,1,60,1,1,1,1,1,1,-0,-0,-0,-0,1,0.467126282743266
5,2,1,1,61,1,1,1,1,1,1,1,-0,-0,-0,-0,0.608548397552795
5,2,1,1,62,0,1,1,1,1,1,1,-0,-0,-0,-0,0.696201872278607
5,2,1,1,63,0,0,0,0,1,1,1,-1,-0,-0,-0,0.557868601321388
5,2,1,1,64,0,1,1,-0,0,1,1,1,-1,-0,-0,0.918281032276127
5,2,1,1,65,1,0,0,0,-0,0,1,-1,1,-1,-0,0.588677814683479
5,2,1,1,66,0,0,0,-1,0,-0,0,0,-1,1,-1,0.327918820694777
5,2,1,1,67,0,0,0,-0,-1,0,-0,1,0,-1,1,0.433170580864044
5,2,1,1,68,1,1,1,-0,-0,-1,0,1,1,0,-1,0.494517879710429
5,2,1,1,69,0,0,0,1,-0,-0,-1,-0,1,1,0,0.644899890730812
5,2,1,1,70,1,1,1,-0,1,-0,-0,1,-0,1,1,0.635390227928156
5,2,1,1,71,1,1,0,1,-0,1,-0,-0,1,-0,1,0.630272112637613
5,2,1,1,72,1,0,1,1,1,-0,1,-0,-0,1,-0,0.367966604402227
5,2,1,1,73,0,1,0,-1,1,1,-0,0,-0,-0,1,0.556008845121823
5,2,1,1,74,0,0,1,0,-1,1,1,-1,0,-0,-0,0.431941255292259
5,2,1,1,75,1,0,1,-0,0,-1,1,1,-1,0,-0,0.701742488329501
5,2,1,1,76,0,1,0,-1,-0,0,-1,0,1,-1,0,0.502311285132464
5,2,1,1,77,0,1,0,0,-1,-0,0,-1,0,1,-1,0.604420809928342
5,2,1,1,78,1,0,1,0,0,-1,-0,-1,-1,0,1,0.461260408138742
5,2,1,1,79,0,1,0,-1,0,0,-1,0,-1,-1,0,0.60043575607915
5,2,1,1,80,1,0,1,0,-1,0,0,-1,0,-1,-1,0.50709159796952
5,2,1,1,81,0,1,0,-1,0,-1,0,0,-1,0,-1,0.382804903746091
5,2,1,1,82,1,0,1,0,-1,0,-1,-1,0,-1,0,0.671207866377472
5,2,1,1,83,1,0,1,-1,0,-1,0,0,-1,0,-1,0.620814568219885
5,2,1,1,84,1,0,1,-1,-1,0,-1,0,0,-1,0,0.661224566515557
5,2,1,1,85,1,0,1,-1,-1,-1,0,0,0,0,-1,0.457939026468466
5,2,1,1,86,0,0,1,-1,-1,-1,-1,0,0,0,0,0.51906779967976
5,2,1,1,87,1,0,1,-0,-1,-1,-1,1,0,0,0,0.533064317435219
5,2,1,1,88,1,0,1,-1,-0,-1,-1,0,1,0,0,0.639614090041732
5,2,1,1,89,1,0,1,-1,-1,-0,-1,0,0,1,0,0.59864742081345
5,2,1,1,90,1,0,1,-1,-1,-1,-0,0,0,0,1,0.470681881367682
5,2,1,1,91,1,0,0,-1,-1,-1,-1,0,0,0,0,0.774379657556437
5,2,1,1,92,0,0,0,-1,-1,-1,-1,0,0,0,0,0.646132426878239
5,2,1,1,93,0,0,0,-0,-1,-1,-1,1,0,0,0,1.2894919685491
5,2,1,1,94,1,1,1,-0,-0,-1,-1,1,1,0,0,0.753787116597096
5,2,1,1,95,1,1,1,1,-0,-0,-1,-0,1,1,0,0.558117371792605
5,2,1,1,96,1,1,1,1,1,-0,-0,-0,-0,1,1,0.611611783693888
5,2,1,1,97,0,1,1,1,1,1,-0,-0,-0,-0,1,0.655940053999757
5,2,1,1,98,0,0,0,0,1,1,1,-1,-0,-0,-0,0.562087894847537
5,2,1,1,99,1,1,1,-0,0,1,1,1,-1,-0,-0,0.440115458412492
5,2,1,1,100,1,1,1,1,-0,0,1,-0,1,-1,-0,0.468214388109573
5,2,1,1,101,1,1,1,1,1,-0,0,-0,-0,1,-1,0.725095146043259
5,2,1,1,102,1,1,1,1,1,1,-0,-0,-0,-0,1,0.447922895732972
5,2,1,1,103,1,1,1,1,1,1,1,-0,-0,-0,-0,0.578699630088977
5,2,1,1,104,1,1,1,1,1,1,1,-0,-0,-0,-0,0.387328378906659
5,2,1,1,105,1,0,0,1,1,1,1,-0,-0,-0,-0,0.501483375715452
5,2,1,1,106,0,1,0,-1,1,1,1,0,-0,-0,-0,0.561957232983787
5,2,1,1,107,0,0,1,0,-1,1,1,-1,0,-0,-0,0.677029847524409
5,2,1,1,108,0,0,1,-0,0,-1,1,1,-1,0,-0,0.652351910205198
5,2,1,1,109,0,1,0,-0,-0,0,-1,1,1,-1,0,0.417488400760703
5,2,1,1,110,1,0,1,0,-0,-0,0,-1,1,1,-1,0.624555458278792
5,2,1,1,111,1,0,1,-1,0,-0,-0,0,-1,1,1,0.695109606664573
5,2,1,1,112,1,0,1,-1,-1,0,-0,0,0,-1,1,0.51631809089713
5,2,1,1,113,1,0,1,-1,-1,-1,0,0,0,0,-1,0.475262211915378
5,2,1,1,114,1,0,1,-1,-1,-1,-1,0,0,0,0,0.512548392540339
5,2,1,1,115,1,0,1,-1,-1,-1,-1,0,0,0,0,0.681507830956889
5,2,1,1,116,1,0,1,-1,-1,-1,-1,0,0,0,0,0.718302287968982
5,2,1,1,117,1,0,1,-1,-1,-1,-1,0,0,0,0,0.539790616552182
5,2,1,1,118,0,1,0,-1,-1,-1,-1,0,0,0,0,0.59710122936167
5,2,1,1,119,1,1,0,0,-1,-1,-1,-1,0,0,0,0.479227166252713
5,2,1,1,120,0,1,0,1,0,-1,-1,-0,-1,0,0,0.739011834819394
5,2,1,1,121,1,1,0,0,1,0,-1,-1,-0,-1,0,0.553976278232312
5,2,1,1,122,0,1,0,1,0,1,0,-0,-1,-0,-1,0.577840348391419
5,2,1,1,123,1,0,1,0,1,0,1,-1,-0,-1,-0,0.462111479611394
5,2,1,1,124,1,0,1,-1,0,1,0,0,-1,-0,-1,0.585437592937069
5,2,1,1,125,1,0,1,-1,-1,0,1,0,0,-1,-0,0.459893180200652
5,2,1,1,126,0,0,0,-1,-1,-1,0,0,0,0,-1,0.513086079709865
5,2,1,1,127,1,1,1,-0,-1,-1,-1,1,0,0,0,0.687736156064148
5,2,1,1,128,1,1,1,1,-0,-1,-1,-0,1,0,0,0.577536823040646
5,2,1,1,129,1,1,1,1,1,-0,-1,-0,-0,1,0,0.630640615382617
5,2,1,1,130,1,1,1,1,1,1,-0,-0,-0,-0,1,0.918921923338075
5,2,1,1,131,0,0,0,1,1,1,1,-0,-0,-0,-0,0.545157519689837
5,2,1,1,132,1,0,0,-0,1,1,1,1,-0,-0,-0,0.788244997510446
5,2,1,1,133,0,0,0,-1,-0,1,1,0,1,-0,-0,0.636093843501385
5,2,1,1,134,0,0,0,-0,-1,-0,1,1,0,1,-0,0.676564756850894
5,2,1,1,135,0,0,0,-0,-0,-1,-0,1,1,0,1,0.707671318013126
5,2,1,1,136,1,1,1,-0,-0,-0,-1,1,1,1,0,0.750075197569913
5,2,1,1,137,1,1,1,1,-0,-0,-0,-0,1,1,1,0.561069666612184
5,2,1,1,138,0,1,1,1,1,-0,-0,-0,-0,1,1,0.646013456481342
5,2,1,1,139,1,1,1,0,1,1,-0,-1,-0,-0,1,0.63874223737821
5,2,1,1,140,1,1,1,1,0,1,1,-0,-1,-0,-0,0.589973115440898
5,2,1,1,141,1,1,1,1,1,0,1,-0,-0,-1,-0,0.522125556955416
5,2,1,1,142,1,1,1,1,1,1,0,-0,-0,-0,-1,0.578501414150196
5,2,1,1,143,0,0,0,1,1,1,1,-0,-0,-0,-0,0.454540389493104
5,2,1,1,144,1,1,1,-0,1,1,1,1,-0,-0,-0,0.604949765589481
5,2,1,1,145,0,0,0,1,-0,1,1,-0,1,-0,-0,0.680128956997578
5,2,1,1,146,0,1,1,-0,1,-0,1,1,-0,1,-0,0.710263350386413
5,2,1,1,147,1,0,0,0,-0,1,-0,-1,1,-0,1,0.705439487604508
5,2,1,1,148,0,0,0,-1,0,-0,1,0,-1,1,-0,0.513483405789884
5,2,1,1,149,0,0,0,-0,-1,0,-0,1,0,-1,1,0.631995876508881
5,2,1,1,150,0,0,0,-0,-0,-1,0,1,1,0,-1,0.652380575818825
5,2,1,1,151,1,1,1,-0,-0,-0,-1,1,1,1,0,0.513835285252753
5,2,1,1,152,1,1,1,1,-0,-0,-0,-0,1,1,1,0.483256567009903
5,2,1,1,153,1,1,1,1,1,-0,-0,-0,-0,1,1,0.410900966046484
5,2,1,1,154,1,1,1,1,1,1,-0,-0,-0,-0,1,0.43727965555172
5,2,1,1,155,0,0,0,1,1,1,1,-0,-0,-0,-0,0.670008120670445
5,2,1,1,156,1,1,1,-0,1,1,1,1,-0,-0,-0,1.09799473703561
5,2,1,1,157,1,1,1,1,-0,1,1,-0,1,-0,-0,0.416952192233566
5,2,1,1,158,1,1,1,1,1,-0,1,-0,-0,1,-0,0.433919445567426
5,2,1,1,159,1,1,1,1,1,1,-0,-0,-0,-0,1,0.555648081440722
5,2,1,1,160,1,1,1,1,1,1,1,-0,-0,-0,-0,0.487207193720678
6,2,1,1,1,0,1,0,NaN,NaN,NaN,NaN,NaN,NaN,NaN,NaN,1.22722663640889
6,2,1,1,2,1,0,1,0,NaN,NaN,NaN,-1,NaN,NaN,NaN,0.519658709446958
6,2,1,1,3,1,0,1,-1,0,NaN,NaN,0,-1,NaN,NaN,0.520223043306032
6,2,1,1,4,1,0,1,-1,-1,0,NaN,0,0,-1,NaN,0.544126003871497
6,2,1,1,5,1,0,1,-1,-1,-1,0,0,0,0,-1,0.57480927065626
6,2,1,1,6,0,0,1,-1,-1,-1,-1,0,0,0,0,0.607984954905987
6,2,1,1,7,0,0,1,-0,-1,-1,-1,1,0,0,0,0.469206755842606
6,2,1,1,8,1,0,1,-0,-0,-1,-1,1,1,0,0,0.617136858723825
6,2,1,1,9,1,0,1,-1,-0,-0,-1,0,1,1,0,0.59364575445943
6,2,1,1,10,1,0,1,-1,-1,-0,-0,0,0,1,1,0.539387167649693
6,2,1,1,11,0,0,1,-1,-1,-1,-0,0,0,0,1,0.483149725827388
6,2,1,1,12,1,0,1,-0,-1,-1,-1,1,0,0,0,0.579124659583613
6,2,1,1,13,1,0,1,-1,-0,-1,-1,0,1,0,0,0.482629890699172
6,2,1,1,14,1,0,1,-1,-1,-0,-1,0,0,1,0,0.410672602731211
6,2,1,1,15,1,0,1,-1,-1,-1,-0,0,0,0,1,0.519438777082541
6,2,1,1,16,1,0,1,-1,-1,-1,-1,0,0,0,0,0.471255461845431
6,2,1,1,17,1,0,1,-1,-1,-1,-1,0,0,0,0,0.492286156841146
6,2,1,1,18,1,0,1,-1,-1,-1,-1,0,0,0,0,0.457917219406227
6,2,1,1,19,1,0,1,-1,-1,-1,-1,0,0,0,0,0.443790234807238
6,2,1,1,20,1,0,1,-1,-1,-1,-1,0,0,0,0,0.495000909890223
6,2,1,1,21,0,0,1,-1,-1,-1,-1,0,0,0,0,0.485826819196518
6,2,1,1,22,1,0,1,-0,-1,-1,-1,1,0,0,0,0.507783857559843
6,2,1,1,23,0,0,1,-1,-0,-1,-1,0,1,0,0,0.461446447487106
6,2,1,1,24,1,0,1,-0,-1,-0,-1,1,0,1,0,0.518117368439562
6,2,1,1,25,1,0,1,-1,-0,-1,-0,0,1,0,1,0.452929069360835
6,2,1,1,26,1,0,1,-1,-1,-0,-1,0,0,1,0,0.426328209592612
6,2,1,1,27,1,0,1,-1,-1,-1,-0,0,0,0,1,0.449281674897065
6,2,1,1,28,1,1,0,-1,-1,-1,-1,0,0,0,0,0.424642480458715
6,2,1,1,29,1,0,1,1,-1,-1,-1,-0,0,0,0,0.652873983766767
6,2,1,1,30,1,0,1,-1,1,-1,-1,0,-0,0,0,0.537280593249307
6,2,1,1,31,1,0,1,-1,-1,1,-1,0,0,-0,0,0.46721165614872
6,2,1,1,32,1,0,1,-1,-1,-1,1,0,0,0,-0,0.488330682303058
6,2,1,1,33,1,0,1,-1,-1,-1,-1,0,0,0,0,0.468177671777084
6,2,1,1,34,1,0,1,-1,-1,-1,-1,0,0,0,0,0.547066508166608
6,2,1,1,35,1,0,1,-1,-1,-1,-1,0,0,0,0,0.488603601465002
6,2,1,1,36,1,0,1,-1,-1,-1,-1,0,0,0,0,0.508835048633046
6,2,1,1,37,1,0,1,-1,-1,-1,-1,0,0,0,0,0.496317090757657
6,2,1,1,38,1,0,1,-1,-1,-1,-1,0,0,0,0,0.506811732666392
6,2,1,1,39,1,0,1,-1,-1,-1,-1,0,0,0,0,0.404388177448709
6,2,1,1,40,1,0,1,-1,-1,-1,-1,0,0,0,0,0.420006889165961
6,2,1,1,41,0,0,1,-1,-1,-1,-1,0,0,0,0,0.465096312989772
6,2,1,1,42,1,0,1,-0,-1,-1,-1,1,0,0,0,0.570348882436519
6,2,1,1,43,1,0,1,-1,-0,-1,-1,0,1,0,0,0.482891810657748
6,2,1,1,44,0,1,0,-1,-1,-0,-1,0,0,1,0,0.405354097514646
6,2,1,1,45,1,0,1,0,-1,-1,-0,-1,0,0,1,0.410940133726399
6,2,1,1,46,1,0,1,-1,0,-1,-1,0,-1,0,0,0.533636100873991
6,2,1,1,47,1,0,1,-1,-1,0,-1,0,0,-1,0,0.441502708286862
6,2,1,1,48,1,0,1,-1,-1,-1,0,0,0,0,-1,0.437982800307509
6,2,1,1,49,1,0,1,-1,-1,-1,-1,0,0,0,0,0.420011304959189
6,2,1,1,50,1,0,1,-1,-1,-1,-1,0,0,0,0,0.457015985055477
6,2,1,1,51,0,0,1,-1,-1,-1,-1,0,0,0,0,0.522367054167262
6,2,1,1,52,1,0,1,-0,-1,-1,-1,1,0,0,0,0.483031892923464
6,2,1,1,53,0,0,1,-1,-0,-1,-1,0,1,0,0,0.485642471438041
6,2,1,1,54,1,0,1,-0,-1,-0,-1,1,0,1,0,0.503642812269391
6,2,1,1,55,1,0,1,-1,-0,-1,-0,0,1,0,1,0.481720884694369
6,2,1,1,56,0,0,0,-1,-1,-0,-1,0,0,1,0,0.452459248757805
6,2,1,1,57,1,0,0,-0,-1,-1,-0,1,0,0,1,0.525726906074851
6,2,1,1,58,0,0,0,-1,-0,-1,-1,0,1,0,0,0.454665278826724
6,2,1,1,59,0,0,0,-0,-1,-0,-1,1,0,1,0,0.448637631277961
6,2,1,1,60,0,0,0,-0,-0,-1,-0,1,1,0,1,0.511042502177588
6,2,1,1,61,0,1,1,-0,-0,-0,-1,1,1,1,0,0.530271630348579
6,2,1,1,62,0,1,1,0,-0,-0,-0,-1,1,1,1,0.546992191586469
6,2,1,1,63,0,0,0,0,0,-0,-0,-1,-1,1,1,0.538658702760586
6,2,1,1,64,0,0,0,-0,0,0,-0,1,-1,-1,1,0.630660949922458
6,2,1,1,65,0,1,1,-0,-0,0,0,1,1,-1,-1,0.551983935751196
6,2,1,1,66,1,0,0,0,-0,-0,0,-1,1,1,-1,0.630584971950157
6,2,1,1,67,0,0,0,-1,0,-0,-0,0,-1,1,1,0.430235230407561
6,2,1,1,68,0,0,0,-0,-1,0,-0,1,0,-1,1,0.370154463402287
6,2,1,1,69,1,1,1,-0,-0,-1,0,1,1,0,-1,0.714512710386771
6,2,1,1,70,1,1,1,1,-0,-0,-1,-0,1,1,0,0.578522455536586
6,2,1,1,71,0,1,0,1,1,-0,-0,-0,-0,1,1,0.511104603916465
6,2,1,1,72,0,1,0,0,1,1,-0,-1,-0,-0,1,0.896460775162268
6,2,1,1,73,1,0,1,0,0,1,1,-1,-1,-0,-0,0.594318936935451
6,2,1,1,74,0,0,1,-1,0,0,1,0,-1,-1,-0,0.474787676888809
6,2,1,1,75,1,0,1,-0,-1,0,0,1,0,-1,-1,0.569722363972687
6,2,1,1,76,0,1,0,-1,-0,-1,0,0,1,0,-1,0.475766774150543
6,2,1,1,77,0,0,1,0,-1,-0,-1,-1,0,1,0,0.665306144677743
6,2,1,1,78,1,0,1,-0,0,-1,-0,1,-1,0,1,0.616480985881935
6,2,1,1,79,0,1,0,-1,-0,0,-1,0,1,-1,0,0.674480666100862
6,2,1,1,80,0,1,0,0,-1,-0,0,-1,0,1,-1,0.452539850703033
6,2,1,1,81,1,0,1,0,0,-1,-0,-1,-1,0,1,0.55067623827199
6,2,1,1,82,1,0,1,-1,0,0,-1,0,-1,-1,0,0.45251027343329
6,2,1,1,83,1,0,1,-1,-1,0,0,0,0,-1,-1,0.731355207222805
6,2,1,1,84,0,0,1,-1,-1,-1,0,0,0,0,-1,0.48102823732188
6,2,1,1,85,0,0,1,-0,-1,-1,-1,1,0,0,0,0.579281710641226
6,2,1,1,86,1,1,0,-0,-0,-1,-1,1,1,0,0,0.589266795199364
6,2,1,1,87,0,1,0,1,-0,-0,-1,-0,1,1,0,0.559960763464915
6,2,1,1,88,1,0,1,0,1,-0,-0,-1,-0,1,1,0.5681593854315
6,2,1,1,89,1,0,1,-1,0,1,-0,0,-1,-0,1,0.507758124687825
6,2,1,1,90,0,0,1,-1,-1,0,1,0,0,-1,-0,0.494267011730699
6,2,1,1,91,0,0,0,-0,-1,-1,0,1,0,0,-1,0.613196403210168
6,2,1,1,92,1,1,1,-0,-0,-1,-1,1,1,0,0,0.421981767118268
6,2,1,1,93,1,1,1,1,-0,-0,-1,-0,1,1,0,0.675876962712209
6,2,1,1,94,1,1,1,1,1,-0,-0,-0,-0,1,1,0.773481974290917
6,2,1,1,95,1,1,1,1,1,1,-0,-0,-0,-0,1,0.496126106452721
6,2,1,1,96,1,1,1,1,1,1,1,-0,-0,-0,-0,0.439525750254688
6,2,1,1,97,1,1,1,1,1,1,1,-0,-0,-0,-0,0.437422646667983
6,2,1,1,98,1,1,1,1,1,1,1,-0,-0,-0,-0,0.531605707277777
6,2,1,1,99,1,1,1,1,1,1,1,-0,-0,-0,-0,0.513906317100918
6,2,1,1,100,1,1,1,1,1,1,1,-0,-0,-0,-0,0.454849666690279
6,2,1,1,101,1,1,1,1,1,1,1,-0,-0,-0,-0,0.470288313445053
6,2,1,1,102,0,1,1,1,1,1,1,-0,-0,-0,-0,0.50209703809378
6,2,1,1,103,1,1,1,0,1,1,1,-1,-0,-0,-0,0.406503701378824
6,2,1,1,104,0,1,1,1,0,1,1,-0,-1,-0,-0,0.474165509396698
6,2,1,1,105,1,1,1,0,1,0,1,-1,-0,-1,-0,0.552353000166477
6,2,1,1,106,1,1,0,1,0,1,0,-0,-1,-0,-1,0.416521638537233
6,2,1,1,107,1,0,1,1,1,0,1,-0,-0,-1,-0,0.496775600717228
6,2,1,1,108,0,1,0,-1,1,1,0,0,-0,-0,-1,0.564294156385586
6,2,1,1,109,1,1,0,0,-1,1,1,-1,0,-0,-0,0.602701044554124
6,2,1,1,110,0,1,0,1,0,-1,1,-0,-1,0,-0,0.497089329932351
6,2,1,1,111,1,1,0,0,1,0,-1,-1,-0,-1,0,0.636819063576695
6,2,1,1,112,0,1,0,1,0,1,0,-0,-1,-0,-1,0.451519873560756
6,2,1,1,113,1,1,0,0,1,0,1,-1,-0,-1,-0,0.419293611390458
6,2,1,1,114,0,1,0,1,0,1,0,-0,-1,-0,-1,0.511425305165176
6,2,1,1,115,0,1,0,0,1,0,1,-1,-0,-1,-0,0.507362590928096
6,2,1,1,116,0,1,0,0,0,1,0,-1,-1,-0,-1,0.512179221899714
6,2,1,1,117,0,1,0,0,0,0,1,-1,-1,-1,-0,0.627847019553883
6,2,1,1,118,1,0,1,0,0,0,0,-1,-1,-1,-1,0.424641074692772
6,2,1,1,119,0,0,1,-1,0,0,0,0,-1,-1,-1,0.476347523450386
6,2,1,1,120,1,0,1,-0,-1,0,0,1,0,-1,-1,0.43726561832591
6,2,1,1,121,1,0,1,-1,-0,-1,0,0,1,0,-1,0.411741193653143
6,2,1,1,122,1,1,0,-1,-1,-0,-1,0,0,1,0,0.381141355377622
6,2,1,1,123,0,1,0,1,-1,-1,-0,-0,0,0,1,0.341265219693014
6,2,1,1,124,1,0,1,0,1,-1,-1,-1,-0,0,0,0.465851104534522
6,2,1,1,125,1,0,1,-1,0,1,-1,0,-1,-0,0,0.438995976168371
6,2,1,1,126,1,1,1,-1,-1,0,1,0,0,-1,-0,0.431541103760537
6,2,1,1,127,1,0,0,1,-1,-1,0,-0,0,0,-1,0.568107846840576
6,2,1,1,128,0,0,0,-1,1,-1,-1,0,-0,0,0,0.526338452618802
6,2,1,1,129,0,0,0,-0,-1,1,-1,1,0,-0,0,0.439440554757311
6,2,1,1,130,0,0,0,-0,-0,-1,1,1,1,0,-0,0.471741546847625
6,2,1,1,131,0,1,1,-0,-0,-0,-1,1,1,1,0,0.63459316764056
6,2,1,1,132,0,0,0,0,-0,-0,-0,-1,1,1,1,0.669561577116838
6,2,1,1,133,0,1,1,-0,0,-0,-0,1,-1,1,1,0.673689277464291
6,2,1,1,134,1,1,1,0,-0,0,-0,-1,1,-1,1,0.6785259824901
6,2,1,1,135,1,1,1,1,0,-0,0,-0,-1,1,-1,0.440118671620439
6,2,1,1,136,1,1,1,1,1,0,-0,-0,-0,-1,1,0.407935850591457
6,2,1,1,137,0,1,1,1,1,1,0,-0,-0,-0,-1,0.484862102071929
6,2,1,1,138,1,1,1,0,1,1,1,-1,-0,-0,-0,0.609885425721586
6,2,1,1,139,0,0,0,1,0,1,1,-0,-1,-0,-0,0.897639317066933
6,2,1,1,140,0,1,1,-0,1,0,1,1,-0,-1,-0,0.490815365541494
6,2,1,1,141,1,1,1,0,-0,1,0,-1,1,-0,-1,0.645881015283521
6,2,1,1,142,0,1,1,1,0,-0,1,-0,-1,1,-0,0.463608703263162
6,2,1,1,143,0,0,0,0,1,0,-0,-1,-0,-1,1,0.494667688049958
6,2,1,1,144,0,0,0,-0,0,1,0,1,-1,-0,-1,0.410249546395789
6,2,1,1,145,0,1,1,-0,-0,0,1,1,1,-1,-0,0.577220213723194
6,2,1,1,146,0,0,0,0,-0,-0,0,-1,1,1,-1,0.440187452011742
6,2,1,1,147,1,1,1,-0,0,-0,-0,1,-1,1,1,0.496973940666066
6,2,1,1,148,1,1,1,1,-0,0,-0,-0,1,-1,1,0.463744397144183
6,2,1,1,149,1,1,1,1,1,-0,0,-0,-0,1,-1,0.516381878056563
6,2,1,1,150,0,1,1,1,1,1,-0,-0,-0,-0,1,0.483513244027563
6,2,1,1,151,1,1,1,0,1,1,1,-1,-0,-0,-0,0.521641679508321
6,2,1,1,152,0,1,1,1,0,1,1,-0,-1,-0,-0,0.481724611134268
6,2,1,1,153,1,1,1,0,1,0,1,-1,-0,-1,-0,0.3871609582784
6,2,1,1,154,1,1,1,1,0,1,0,-0,-1,-0,-1,0.393439213148667
6,2,1,1,155,1,1,1,1,1,0,1,-0,-0,-1,-0,0.521613362645439
6,2,1,1,156,1,1,1,1,1,1,0,-0,-0,-0,-1,0.611105464347929
6,2,1,1,157,1,1,1,1,1,1,1,-0,-0,-0,-0,0.469678373490751
6,2,1,1,158,1,1,1,1,1,1,1,-0,-0,-0,-0,0.426911757727794
6,2,1,1,159,1,1,1,1,1,1,1,-0,-0,-0,-0,0.415399780133157
6,2,1,1,160,0,1,1,1,1,1,1,-0,-0,-0,-0,0.391089491989987
7,2,1,1,1,1,0,1,NaN,NaN,NaN,NaN,NaN,NaN,NaN,NaN,0.650845029798802
7,2,1,1,2,1,0,1,-1,NaN,NaN,NaN,0,NaN,NaN,NaN,0.641494960931595
7,2,1,1,3,1,0,1,-1,-1,NaN,NaN,0,0,NaN,NaN,0.679992508259602
7,2,1,1,4,1,0,1,-1,-1,-1,NaN,0,0,0,NaN,0.505900971358642
7,2,1,1,5,1,0,1,-1,-1,-1,-1,0,0,0,0,0.473205092130229
7,2,1,1,6,1,0,1,-1,-1,-1,-1,0,0,0,0,0.486498941725586
7,2,1,1,7,1,0,1,-1,-1,-1,-1,0,0,0,0,0.542996629024856
7,2,1,1,8,0,0,1,-1,-1,-1,-1,0,0,0,0,0.570755272929091
7,2,1,1,9,1,0,1,-0,-1,-1,-1,1,0,0,0,0.599434640316758
7,2,1,1,10,1,0,1,-1,-0,-1,-1,0,1,0,0,0.523497701680753
7,2,1,1,11,1,0,1,-1,-1,-0,-1,0,0,1,0,0.526334037829656
7,2,1,1,12,0,0,1,-1,-1,-1,-0,0,0,0,1,0.452606775274035
7,2,1,1,13,1,0,1,-0,-1,-1,-1,1,0,0,0,0.607934776635375
7,2,1,1,14,1,0,1,-1,-0,-1,-1,0,1,0,0,0.512440324237105
7,2,1,1,15,1,0,1,-1,-1,-0,-1,0,0,1,0,0.492058129922953
7,2,1,1,16,1,0,1,-1,-1,-1,-0,0,0,0,1,0.480931137048174
7,2,1,1,17,1,0,1,-1,-1,-1,-1,0,0,0,0,0.602318154880777
7,2,1,1,18,1,0,1,-1,-1,-1,-1,0,0,0,0,0.501031058840454
7,2,1,1,19,1,0,1,-1,-1,-1,-1,0,0,0,0,0.450039163697511
7,2,1,1,20,1,0,1,-1,-1,-1,-1,0,0,0,0,0.556030959240161
7,2,1,1,21,1,0,1,-1,-1,-1,-1,0,0,0,0,0.530406909994781
7,2,1,1,22,1,0,1,-1,-1,-1,-1,0,0,0,0,0.535119699372444
7,2,1,1,23,1,0,1,-1,-1,-1,-1,0,0,0,0,0.522460312000476
7,2,1,1,24,0,0,1,-1,-1,-1,-1,0,0,0,0,0.469260948535521
7,2,1,1,25,1,0,1,-0,-1,-1,-1,1,0,0,0,0.481995904294308
7,2,1,1,26,1,0,1,-1,-0,-1,-1,0,1,0,0,0.491916329716332
7,2,1,1,27,1,0,1,-1,-1,-0,-1,0,0,1,0,0.536775669665076
7,2,1,1,28,0,0,1,-1,-1,-1,-0,0,0,0,1,0.500323407468386
7,2,1,1,29,1,0,1,-0,-1,-1,-1,1,0,0,0,0.570407612365671
7,2,1,1,30,1,0,1,-1,-0,-1,-1,0,1,0,0,0.612361451785546
7,2,1,1,31,1,0,1,-1,-1,-0,-1,0,0,1,0,0.465920911985449
7,2,1,1,32,1,0,1,-1,-1,-1,-0,0,0,0,1,0.605883436335716
7,2,1,1,33,1,0,1,-1,-1,-1,-1,0,0,0,0,0.484313519846182
7,2,1,1,34,1,0,1,-1,-1,-1,-1,0,0,0,0,0.49455289542675
7,2,1,1,35,1,0,1,-1,-1,-1,-1,0,0,0,0,0.673250402673148
7,2,1,1,36,1,0,1,-1,-1,-1,-1,0,0,0,0,0.500307972193696
7,2,1,1,37,1,0,1,-1,-1,-1,-1,0,0,0,0,0.448218188597821
7,2,1,1,38,0,0,1,-1,-1,-1,-1,0,0,0,0,0.486950391612481
7,2,1,1,39,0,0,1,-0,-1,-1,-1,1,0,0,0,0.4487961314735
7,2,1,1,40,1,0,1,-0,-0,-1,-1,1,1,0,0,0.504629582224879
7,2,1,1,41,1,0,1,-1,-0,-0,-1,0,1,1,0,0.431402509158943
7,2,1,1,42,0,0,1,-1,-1,-0,-0,0,0,1,1,0.461854257446248
7,2,1,1,43,1,0,1,-0,-1,-1,-0,1,0,0,1,0.536399704928044
7,2,1,1,44,0,0,1,-1,-0,-1,-1,0,1,0,0,0.526705676922575
7,2,1,1,45,0,0,1,-0,-1,-0,-1,1,0,1,0,0.471384864184074
7,2,1,1,46,1,0,1,-0,-0,-1,-0,1,1,0,1,0.642596558551304
7,2,1,1,47,1,0,1,-1,-0,-0,-1,0,1,1,0,0.547160667541903
7,2,1,1,48,0,0,1,-1,-1,-0,-0,0,0,1,1,0.519049373455346
7,2,1,1,49,0,0,1,-0,-1,-1,-0,1,0,0,1,0.531770387315191
7,2,1,1,50,0,1,0,-0,-0,-1,-1,1,1,0,0,0.679380469082389
7,2,1,1,51,1,0,1,0,-0,-0,-1,-1,1,1,0,0.629247882519849
7,2,1,1,52,1,0,1,-1,0,-0,-0,0,-1,1,1,0.524635823909193
7,2,1,1,53,1,0,1,-1,-1,0,-0,0,0,-1,1,0.554376680753194
7,2,1,1,54,1,0,1,-1,-1,-1,0,0,0,0,-1,0.518482157262042
7,2,1,1,55,1,0,1,-1,-1,-1,-1,0,0,0,0,0.562358768482227
7,2,1,1,56,0,0,0,-1,-1,-1,-1,0,0,0,0,0.500184038188308
7,2,1,1,57,1,0,0,-0,-1,-1,-1,1,0,0,0,0.509387116413563
7,2,1,1,58,0,0,0,-1,-0,-1,-1,0,1,0,0,0.552839940646663
7,2,1,1,59,1,1,1,-0,-1,-0,-1,1,0,1,0,0.584867961064447
7,2,1,1,60,1,1,1,1,-0,-1,-0,-0,1,0,1,0.547834741242696
7,2,1,1,61,1,1,1,1,1,-0,-1,-0,-0,1,0,0.83455203199992
7,2,1,1,62,1,1,1,1,1,1,-0,-0,-0,-0,1,0.536109575477894
7,2,1,1,63,1,1,1,1,1,1,1,-0,-0,-0,-0,0.510042624548078
7,2,1,1,64,1,1,1,1,1,1,1,-0,-0,-0,-0,0.650326828472316
7,2,1,1,65,0,1,1,1,1,1,1,-0,-0,-0,-0,0.542002618080005
7,2,1,1,66,0,1,1,0,1,1,1,-1,-0,-0,-0,0.610088793851901
7,2,1,1,67,1,1,1,0,0,1,1,-1,-1,-0,-0,0.614232810155954
7,2,1,1,68,1,1,1,1,0,0,1,-0,-1,-1,-0,0.513196303916629
7,2,1,1,69,1,1,1,1,1,0,0,-0,-0,-1,-1,0.506847844051663
7,2,1,1,70,1,1,1,1,1,1,0,-0,-0,-0,-1,0.545970389677677
7,2,1,1,71,0,1,0,1,1,1,1,-0,-0,-0,-0,0.550091725657694
7,2,1,1,72,0,1,0,0,1,1,1,-1,-0,-0,-0,0.657602102146484
7,2,1,1,73,1,0,1,0,0,1,1,-1,-1,-0,-0,0.59811471978901
7,2,1,1,74,1,0,1,-1,0,0,1,0,-1,-1,-0,0.5959674892365
7,2,1,1,75,1,0,1,-1,-1,0,0,0,0,-1,-1,0.641367926960811
7,2,1,1,76,1,0,1,-1,-1,-1,0,0,0,0,-1,0.622229857253842
7,2,1,1,77,0,0,1,-1,-1,-1,-1,0,0,0,0,0.631418936070986
7,2,1,1,78,0,0,1,-0,-1,-1,-1,1,0,0,0,0.788583265268244
7,2,1,1,79,1,1,0,-0,-0,-1,-1,1,1,0,0,0.648116392898373
7,2,1,1,80,0,1,0,1,-0,-0,-1,-0,1,1,0,0.56854459940223
7,2,1,1,81,0,1,0,0,1,-0,-0,-1,-0,1,1,0.568114316440187
7,2,1,1,82,0,0,1,0,0,1,-0,-1,-1,-0,1,0.633770838438068
7,2,1,1,83,1,0,1,-0,0,0,1,1,-1,-1,-0,0.803355528914835
7,2,1,1,84,1,0,1,-1,-0,0,0,0,1,-1,-1,0.716150816704612
7,2,1,1,85,1,0,1,-1,-1,-0,0,0,0,1,-1,0.598678129317705
7,2,1,1,86,1,0,1,-1,-1,-1,-0,0,0,0,1,0.55695566785289
7,2,1,1,87,1,0,1,-1,-1,-1,-1,0,0,0,0,0.786564855778124
7,2,1,1,88,1,0,1,-1,-1,-1,-1,0,0,0,0,0.546631639648695
7,2,1,1,89,1,0,1,-1,-1,-1,-1,0,0,0,0,0.597944361856207
7,2,1,1,90,1,0,1,-1,-1,-1,-1,0,0,0,0,0.603522745135706
7,2,1,1,91,0,0,0,-1,-1,-1,-1,0,0,0,0,0.577484276436735
7,2,1,1,92,0,0,0,-0,-1,-1,-1,1,0,0,0,0.509397038083989
7,2,1,1,93,1,1,1,-0,-0,-1,-1,1,1,0,0,0.622145567787811
7,2,1,1,94,1,1,1,1,-0,-0,-1,-0,1,1,0,0.691884967091028
7,2,1,1,95,1,1,1,1,1,-0,-0,-0,-0,1,1,0.587048891640734
7,2,1,1,96,1,1,1,1,1,1,-0,-0,-0,-0,1,0.539959079585969
7,2,1,1,97,0,1,1,1,1,1,1,-0,-0,-0,-0,0.494422162359115
7,2,1,1,98,0,1,1,0,1,1,1,-1,-0,-0,-0,0.681192071177065
7,2,1,1,99,0,0,0,0,0,1,1,-1,-1,-0,-0,0.858817535685375
7,2,1,1,100,1,1,1,-0,0,0,1,1,-1,-1,-0,0.816952521854546
7,2,1,1,101,1,1,1,1,-0,0,0,-0,1,-1,-1,0.623515195620712
7,2,1,1,102,1,1,1,1,1,-0,0,-0,-0,1,-1,0.549607342691161
7,2,1,1,103,1,1,1,1,1,1,-0,-0,-0,-0,1,0.556226220971439
7,2,1,1,104,1,1,1,1,1,1,1,-0,-0,-0,-0,0.504670442489441
7,2,1,1,105,0,1,1,1,1,1,1,-0,-0,-0,-0,0.585309028159827
7,2,1,1,106,0,1,0,0,1,1,1,-1,-0,-0,-0,0.531302870658692
7,2,1,1,107,0,0,1,0,0,1,1,-1,-1,-0,-0,0.821514769573696
7,2,1,1,108,1,0,1,-0,0,0,1,1,-1,-1,-0,0.639722945983522
7,2,1,1,109,1,0,1,-1,-0,0,0,0,1,-1,-1,0.489435726660304
7,2,1,1,110,1,0,1,-1,-1,-0,0,0,0,1,-1,0.461378472507931
7,2,1,1,111,1,0,1,-1,-1,-1,-0,0,0,0,1,0.556695376639254
7,2,1,1,112,0,0,1,-1,-1,-1,-1,0,0,0,0,0.543465434224345
7,2,1,1,113,1,0,1,-0,-1,-1,-1,1,0,0,0,0.528036634845193
7,2,1,1,114,0,0,1,-1,-0,-1,-1,0,1,0,0,0.56136353185866
7,2,1,1,115,1,0,1,-0,-1,-0,-1,1,0,1,0,0.548935043276288
7,2,1,1,116,1,0,1,-1,-0,-1,-0,0,1,0,1,0.504073244694155
7,2,1,1,117,1,0,1,-1,-1,-0,-1,0,0,1,0,0.55529377568746
7,2,1,1,118,1,0,1,-1,-1,-1,-0,0,0,0,1,0.525679196347483
7,2,1,1,119,1,0,1,-1,-1,-1,-1,0,0,0,0,0.698378091969062
7,2,1,1,120,1,0,1,-1,-1,-1,-1,0,0,0,0,0.545807106769644
7,2,1,1,121,1,0,1,-1,-1,-1,-1,0,0,0,0,0.52814439922804
7,2,1,1,122,1,0,1,-1,-1,-1,-1,0,0,0,0,0.579793451586738
7,2,1,1,123,0,0,1,-1,-1,-1,-1,0,0,0,0,0.485793688858394
7,2,1,1,124,0,0,1,-0,-1,-1,-1,1,0,0,0,0.677328610152472
7,2,1,1,125,1,0,1,-0,-0,-1,-1,1,1,0,0,0.568554992263671
7,2,1,1,126,0,0,0,-1,-0,-0,-1,0,1,1,0,0.643698288826272
7,2,1,1,127,0,0,0,-0,-1,-0,-0,1,0,1,1,0.522655520529952
7,2,1,1,128,1,1,1,-0,-0,-1,-0,1,1,0,1,0.86017470760271
7,2,1,1,129,1,1,1,1,-0,-0,-1,-0,1,1,0,0.585618078708649
7,2,1,1,130,1,1,1,1,1,-0,-0,-0,-0,1,1,0.502708098152652
7,2,1,1,131,0,1,1,1,1,1,-0,-0,-0,-0,1,0.528392625565175
7,2,1,1,132,0,0,0,0,1,1,1,-1,-0,-0,-0,0.658283995056991
7,2,1,1,133,0,1,1,-0,0,1,1,1,-1,-0,-0,0.71009452623548
7,2,1,1,134,0,0,0,0,-0,0,1,-1,1,-1,-0,0.720554517756682
7,2,1,1,135,1,1,1,-0,0,-0,0,1,-1,1,-1,0.924764407682233
7,2,1,1,136,0,0,0,1,-0,0,-0,-0,1,-1,1,0.817791956244037
7,2,1,1,137,0,0,0,-0,1,-0,0,1,-0,1,-1,0.664972293656319
7,2,1,1,138,0,1,1,-0,-0,1,-0,1,1,-0,1,0.59315596165834
7,2,1,1,139,1,0,0,0,-0,-0,1,-1,1,1,-0,0.630003714119084
7,2,1,1,140,1,0,0,-1,0,-0,-0,0,-1,1,1,0.555127966275904
7,2,1,1,141,0,0,0,-1,-1,0,-0,0,0,-1,1,0.49015365797095
7,2,1,1,142,0,0,0,-0,-1,-1,0,1,0,0,-1,0.456670432118699
7,2,1,1,143,1,0,0,-0,-0,-1,-1,1,1,0,0,0.561130718328059
7,2,1,1,144,0,0,0,-1,-0,-0,-1,0,1,1,0,0.521418232761789
7,2,1,1,145,0,0,0,-0,-1,-0,-0,1,0,1,1,0.688546865014359
7,2,1,1,146,0,0,0,-0,-0,-1,-0,1,1,0,1,0.711753736832179
7,2,1,1,147,0,0,0,-0,-0,-0,-1,1,1,1,0,0.494188895099796
7,2,1,1,148,1,1,1,-0,-0,-0,-0,1,1,1,1,0.876379197987262
7,2,1,1,149,1,1,1,1,-0,-0,-0,-0,1,1,1,0.517048223933671
7,2,1,1,150,0,1,1,1,1,-0,-0,-0,-0,1,1,0.491801209631376
7,2,1,1,151,1,1,1,0,1,1,-0,-1,-0,-0,1,0.486956433800515
7,2,1,1,152,1,1,1,1,0,1,1,-0,-1,-0,-0,0.557968688197434
7,2,1,1,153,1,1,1,1,1,0,1,-0,-0,-1,-0,0.603171207359992
7,2,1,1,154,1,1,1,1,1,1,0,-0,-0,-0,-1,0.527779842552263
7,2,1,1,155,1,1,1,1,1,1,1,-0,-0,-0,-0,0.695798114698846
7,2,1,1,156,0,1,1,1,1,1,1,-0,-0,-0,-0,0.535058228881098
7,2,1,1,157,1,1,1,0,1,1,1,-1,-0,-0,-0,0.464646565204021
7,2,1,1,158,1,1,1,1,0,1,1,-0,-1,-0,-0,0.459975165082142
7,2,1,1,159,1,1,1,1,1,0,1,-0,-0,-1,-0,0.536753893538844
7,2,1,1,160,1,1,1,1,1,1,0,-0,-0,-0,-1,0.753296437265817
8,2,1,1,1,0,0,0,NaN,NaN,NaN,NaN,NaN,NaN,NaN,NaN,0.92765855329344
8,2,1,1,2,1,1,1,-0,NaN,NaN,NaN,1,NaN,NaN,NaN,0.966565289185382
8,2,1,1,3,1,1,1,1,-0,NaN,NaN,-0,1,NaN,NaN,0.798999416874722
8,2,1,1,4,1,1,1,1,1,-0,NaN,-0,-0,1,NaN,0.566955084796064
8,2,1,1,5,1,1,1,1,1,1,-0,-0,-0,-0,1,0.747594202752225
8,2,1,1,6,1,1,1,1,1,1,1,-0,-0,-0,-0,0.889616255240981
8,2,1,1,7,1,1,1,1,1,1,1,-0,-0,-0,-0,0.695972051413264
8,2,1,1,8,1,1,1,1,1,1,1,-0,-0,-0,-0,0.744312303839251
8,2,1,1,9,1,1,1,1,1,1,1,-0,-0,-0,-0,0.723115105065517
8,2,1,1,10,1,1,1,1,1,1,1,-0,-0,-0,-0,0.65743044600822
8,2,1,1,11,1,1,1,1,1,1,1,-0,-0,-0,-0,0.742615455936175
8,2,1,1,12,1,1,1,1,1,1,1,-0,-0,-0,-0,0.758452494104858
8,2,1,1,13,1,1,1,1,1,1,1,-0,-0,-0,-0,0.758560371410567
8,2,1,1,14,1,1,1,1,1,1,1,-0,-0,-0,-0,0.730973364028614
8,2,1,1,15,1,1,1,1,1,1,1,-0,-0,-0,-0,0.706835026910994
8,2,1,1,16,0,1,1,1,1,1,1,-0,-0,-0,-0,0.777488428226206
8,2,1,1,17,0,0,0,0,1,1,1,-1,-0,-0,-0,0.791850315465126
8,2,1,1,18,1,1,1,-0,0,1,1,1,-1,-0,-0,0.719779190956615
8,2,1,1,19,1,1,1,1,-0,0,1,-0,1,-1,-0,0.612748797051609
8,2,1,1,20,1,1,1,1,1,-0,0,-0,-0,1,-1,0.72832106432179
8,2,1,1,21,0,1,1,1,1,1,-0,-0,-0,-0,1,0.714212476275861
8,2,1,1,22,1,1,1,0,1,1,1,-1,-0,-0,-0,0.824619666964281
8,2,1,1,23,0,1,1,1,0,1,1,-0,-1,-0,-0,0.864976079610642
8,2,1,1,24,1,0,0,0,1,0,1,-1,-0,-1,-0,0.83558979263762
8,2,1,1,25,0,0,0,-1,0,1,0,0,-1,-0,-1,0.605818314303178
8,2,1,1,26,0,1,1,-0,-1,0,1,1,0,-1,-0,0.666004942147993
8,2,1,1,27,1,0,0,0,-0,-1,0,-1,1,0,-1,0.68710317579098
8,2,1,1,28,0,0,0,-1,0,-0,-1,0,-1,1,0,0.630308697291184
8,2,1,1,29,0,0,0,-0,-1,0,-0,1,0,-1,1,0.71246575092664
8,2,1,1,30,1,1,1,-0,-0,-1,0,1,1,0,-1,0.697230974968988
8,2,1,1,31,1,1,1,1,-0,-0,-1,-0,1,1,0,0.560825146036223
8,2,1,1,32,1,1,1,1,1,-0,-0,-0,-0,1,1,0.659363844315521
8,2,1,1,33,1,1,1,1,1,1,-0,-0,-0,-0,1,0.631837916676886
8,2,1,1,34,1,1,1,1,1,1,1,-0,-0,-0,-0,0.608279479958583
8,2,1,1,35,0,1,1,1,1,1,1,-0,-0,-0,-0,0.581677240494173
8,2,1,1,36,0,1,1,0,1,1,1,-1,-0,-0,-0,0.651445357594639
8,2,1,1,37,0,0,0,0,0,1,1,-1,-1,-0,-0,0.723101704497822
8,2,1,1,38,1,1,1,-0,0,0,1,1,-1,-1,-0,0.784060371399391
8,2,1,1,39,1,1,1,1,-0,0,0,-0,1,-1,-1,0.594498775957618
8,2,1,1,40,1,1,1,1,1,-0,0,-0,-0,1,-1,0.644020469218958
8,2,1,1,41,1,1,1,1,1,1,-0,-0,-0,-0,1,0.602780020330101
8,2,1,1,42,0,1,1,1,1,1,1,-0,-0,-0,-0,0.568124298297334
8,2,1,1,43,1,0,0,0,1,1,1,-1,-0,-0,-0,0.627606676018331
8,2,1,1,44,0,0,0,-1,0,1,1,0,-1,-0,-0,0.562196658109315
8,2,1,1,45,0,1,1,-0,-1,0,1,1,0,-1,-0,0.612620036117733
8,2,1,1,46,0,0,0,0,-0,-1,0,-1,1,0,-1,0.600629236374516
8,2,1,1,47,1,1,1,-0,0,-0,-1,1,-1,1,0,0.753957940149121
8,2,1,1,48,1,1,1,1,-0,0,-0,-0,1,-1,1,0.58211803692393
8,2,1,1,49,1,1,1,1,1,-0,0,-0,-0,1,-1,0.639993056305684
8,2,1,1,50,1,1,1,1,1,1,-0,-0,-0,-0,1,0.742490336298943
8,2,1,1,51,1,1,1,1,1,1,1,-0,-0,-0,-0,0.773098037170712
8,2,1,1,52,1,1,1,1,1,1,1,-0,-0,-0,-0,0.616973827476613
8,2,1,1,53,1,1,1,1,1,1,1,-0,-0,-0,-0,0.586880626447964
8,2,1,1,54,1,1,1,1,1,1,1,-0,-0,-0,-0,0.899381407420151
8,2,1,1,55,1,1,1,1,1,1,1,-0,-0,-0,-0,0.61379241006216
8,2,1,1,56,0,1,0,1,1,1,1,-0,-0,-0,-0,0.638389174127951
8,2,1,1,57,0,1,0,0,1,1,1,-1,-0,-0,-0,0.645811340480577
8,2,1,1,58,1,0,1,0,0,1,1,-1,-1,-0,-0,0.75951037480263
8,2,1,1,59,0,0,1,-1,0,0,1,0,-1,-1,-0,0.714313138218131
8,2,1,1,60,1,1,0,-0,-1,0,0,1,0,-1,-1,0.685851970862132
8,2,1,1,61,0,1,0,1,-0,-1,0,-0,1,0,-1,0.784543253830634
8,2,1,1,62,0,1,0,0,1,-0,-1,-1,-0,1,0,0.662857382791117
8,2,1,1,63,0,0,1,0,0,1,-0,-1,-1,-0,1,0.838079270499293
8,2,1,1,64,1,0,1,-0,0,0,1,1,-1,-1,-0,0.798293402476702
8,2,1,1,65,0,1,0,-1,-0,0,0,0,1,-1,-1,0.867187297146302
8,2,1,1,66,1,0,1,0,-1,-0,0,-1,0,1,-1,0.713649660523515
8,2,1,1,67,1,0,1,-1,0,-1,-0,0,-1,0,1,0.574626573186833
8,2,1,1,68,1,0,1,-1,-1,0,-1,0,0,-1,0,0.604801407142077
8,2,1,1,69,0,0,1,-1,-1,-1,0,0,0,0,-1,0.785237331234384
8,2,1,1,70,0,1,0,-0,-1,-1,-1,1,0,0,0,1.00081688474165
8,2,1,1,71,0,0,0,0,-0,-1,-1,-1,1,0,0,0.646970567118842
8,2,1,1,72,1,1,1,-0,0,-0,-1,1,-1,1,0,0.926135837624315
8,2,1,1,73,0,1,1,1,-0,0,-0,-0,1,-1,1,0.65582850354258
8,2,1,1,74,1,1,1,0,1,-0,0,-1,-0,1,-1,0.617611695022788
8,2,1,1,75,0,0,0,1,0,1,-0,-0,-1,-0,1,0.529168897715863
8,2,1,1,76,1,1,1,-0,1,0,1,1,-0,-1,-0,0.639168360328767
8,2,1,1,77,1,1,1,1,-0,1,0,-0,1,-0,-1,0.598083119548392
8,2,1,1,78,1,1,1,1,1,-0,1,-0,-0,1,-0,0.868105256580748
8,2,1,1,79,1,1,1,1,1,1,-0,-0,-0,-0,1,0.932182008225936
8,2,1,1,80,0,1,1,1,1,1,1,-0,-0,-0,-0,0.886938816518523
8,2,1,1,81,0,1,1,0,1,1,1,-1,-0,-0,-0,0.893794372852426
8,2,1,1,82,0,0,0,0,0,1,1,-1,-1,-0,-0,0.594377024972346
8,2,1,1,83,1,1,1,-0,0,0,1,1,-1,-1,-0,0.645995958417188
8,2,1,1,84,1,1,1,1,-0,0,0,-0,1,-1,-1,0.629382209328469
8,2,1,1,85,1,1,1,1,1,-0,0,-0,-0,1,-1,0.764070757955778
8,2,1,1,86,1,1,1,1,1,1,-0,-0,-0,-0,1,0.72697221749695
8,2,1,1,87,1,1,1,1,1,1,1,-0,-0,-0,-0,0.661358272307552
8,2,1,1,88,1,1,1,1,1,1,1,-0,-0,-0,-0,0.653397915535606
8,2,1,1,89,1,1,1,1,1,1,1,-0,-0,-0,-0,0.696625812677667
8,2,1,1,90,1,1,1,1,1,1,1,-0,-0,-0,-0,0.671187261061277
8,2,1,1,91,0,1,0,1,1,1,1,-0,-0,-0,-0,0.782277309685014
8,2,1,1,92,0,0,0,0,1,1,1,-1,-0,-0,-0,0
8,2,1,1,93,1,0,1,NaN,0,1,1,NaN,-1,-0,-0,0.801770081627183
8,2,1,1,94,0,1,0,-1,NaN,0,1,0,NaN,-1,-0,0.850811759824865
8,2,1,1,95,1,0,1,0,-1,NaN,0,-1,0,NaN,-1,0.677311157342046
8,2,1,1,96,1,0,1,-1,0,-1,NaN,0,-1,0,NaN,0.635954375728033
8,2,1,1,97,1,0,1,-1,-1,0,-1,0,0,-1,0,0.542028789932374
8,2,1,1,98,0,0,1,-1,-1,-1,0,0,0,0,-1,0.608372643240727
8,2,1,1,99,0,1,0,-0,-1,-1,-1,1,0,0,0,0.621148406469729
8,2,1,1,100,0,0,1,0,-0,-1,-1,-1,1,0,0,0.85434015118517
8,2,1,1,101,1,1,0,-0,0,-0,-1,1,-1,1,0,0.638551579846535
8,2,1,1,102,0,1,0,1,-0,0,-0,-0,1,-1,1,0.797319648554549
8,2,1,1,103,0,1,0,0,1,-0,0,-1,-0,1,-1,0.655458102235571
8,2,1,1,104,1,0,1,0,0,1,-0,-1,-1,-0,1,0.736307171930093
8,2,1,1,105,1,0,1,-1,0,0,1,0,-1,-1,-0,0.651291239541024
8,2,1,1,106,0,0,0,-1,-1,0,0,0,0,-1,-1,0.593759710493032
8,2,1,1,107,1,1,1,-0,-1,-1,0,1,0,0,-1,0.617080188414548
8,2,1,1,108,1,1,1,1,-0,-1,-1,-0,1,0,0,0.655579073994886
8,2,1,1,109,0,1,1,1,1,-0,-1,-0,-0,1,0,0.594166864349972
8,2,1,1,110,1,1,1,0,1,1,-0,-1,-0,-0,1,0.77536996366689
8,2,1,1,111,1,1,1,1,0,1,1,-0,-1,-0,-0,0.562654647044837
8,2,1,1,112,1,1,1,1,1,0,1,-0,-0,-1,-0,0.638345955405384
8,2,1,1,113,0,1,1,1,1,1,0,-0,-0,-0,-1,0.636677003582008
8,2,1,1,114,0,0,0,0,1,1,1,-1,-0,-0,-0,0.574595306185074
8,2,1,1,115,0,1,1,-0,0,1,1,1,-1,-0,-0,0.585360504454002
8,2,1,1,116,1,0,0,0,-0,0,1,-1,1,-1,-0,0.768241469690111
8,2,1,1,117,0,0,0,-1,0,-0,0,0,-1,1,-1,1.05463195638731
8,2,1,1,118,1,1,1,-0,-1,0,-0,1,0,-1,1,0.784721911768429
8,2,1,1,119,1,1,1,1,-0,-1,0,-0,1,0,-1,0.667588409211021
8,2,1,1,120,1,1,1,1,1,-0,-1,-0,-0,1,0,0.653750382596627
8,2,1,1,121,1,1,1,1,1,1,-0,-0,-0,-0,1,0.664526336942799
8,2,1,1,122,1,1,1,1,1,1,1,-0,-0,-0,-0,0.620306285796687
8,2,1,1,123,1,1,1,1,1,1,1,-0,-0,-0,-0,0.709710519120563
8,2,1,1,124,1,1,1,1,1,1,1,-0,-0,-0,-0,0.715467901201919
8,2,1,1,125,0,1,1,1,1,1,1,-0,-0,-0,-0,0.623981559765525
8,2,1,1,126,1,0,1,0,1,1,1,-1,-0,-0,-0,1.37996143772034
8,2,1,1,127,1,0,1,-1,0,1,1,0,-1,-0,-0,0.649292408081237
8,2,1,1,128,1,0,1,-1,-1,0,1,0,0,-1,-0,0.649889237247407
8,2,1,1,129,1,0,1,-1,-1,-1,0,0,0,0,-1,0.555525704752654
8,2,1,1,130,1,0,1,-1,-1,-1,-1,0,0,0,0,0.614236469147727
8,2,1,1,131,0,0,1,-1,-1,-1,-1,0,0,0,0,0.628619768831413
8,2,1,1,132,1,0,1,-0,-1,-1,-1,1,0,0,0,0.738999329390936
8,2,1,1,133,0,0,1,-1,-0,-1,-1,0,1,0,0,0.594273881870322
8,2,1,1,134,0,1,0,-0,-1,-0,-1,1,0,1,0,0.905424703611061
8,2,1,1,135,0,1,0,0,-0,-1,-0,-1,1,0,1,1.00876336009242
8,2,1,1,136,1,0,1,0,0,-0,-1,-1,-1,1,0,0.794647685659584
8,2,1,1,137,1,0,1,-1,0,0,-0,0,-1,-1,1,0.638835275894962
8,2,1,1,138,1,0,1,-1,-1,0,0,0,0,-1,-1,0.70113272726303
8,2,1,1,139,0,0,1,-1,-1,-1,0,0,0,0,-1,0.646960412210319
8,2,1,1,140,1,1,0,-0,-1,-1,-1,1,0,0,0,0.601978955033701
8,2,1,1,141,0,1,0,1,-0,-1,-1,-0,1,0,0,0.57504433777649
8,2,1,1,142,0,1,0,0,1,-0,-1,-1,-0,1,0,0.802790312212892
8,2,1,1,143,0,0,1,0,0,1,-0,-1,-1,-0,1,0.579468188632745
8,2,1,1,144,0,1,0,-0,0,0,1,1,-1,-1,-0,0.632530357805081
8,2,1,1,145,1,0,1,0,-0,0,0,-1,1,-1,-1,0.88712267257506
8,2,1,1,146,1,0,1,-1,0,-0,0,0,-1,1,-1,0.660134768288117
8,2,1,1,147,1,0,1,-1,-1,0,-0,0,0,-1,1,0.677761166414712
8,2,1,1,148,1,0,1,-1,-1,-1,0,0,0,0,-1,0.640650471847039
8,2,1,1,149,1,0,1,-1,-1,-1,-1,0,0,0,0,0.610484569799155
8,2,1,1,150,1,0,1,-1,-1,-1,-1,0,0,0,0,0.685282563848887
8,2,1,1,151,1,0,1,-1,-1,-1,-1,0,0,0,0,0.561818808841053
8,2,1,1,152,1,0,1,-1,-1,-1,-1,0,0,0,0,0.728086473827716
8,2,1,1,153,1,0,1,-1,-1,-1,-1,0,0,0,0,0.899766785500105
8,2,1,1,154,1,0,1,-1,-1,-1,-1,0,0,0,0,0.563694916549139
8,2,1,1,155,1,0,1,-1,-1,-1,-1,0,0,0,0,0.664575249596965
8,2,1,1,156,1,0,1,-1,-1,-1,-1,0,0,0,0,0.68984219286358
8,2,1,1,157,1,0,1,-1,-1,-1,-1,0,0,0,0,0.931380303693004
8,2,1,1,158,1,0,1,-1,-1,-1,-1,0,0,0,0,0.596858450386208
8,2,1,1,159,1,0,1,-1,-1,-1,-1,0,0,0,0,0.554618707217742
8,2,1,1,160,1,0,1,-1,-1,-1,-1,0,0,0,0,0.625146550184581
9,2,1,1,1,1,1,1,NaN,NaN,NaN,NaN,NaN,NaN,NaN,NaN,0.967211291703279
9,2,1,1,2,0,1,1,1,NaN,NaN,NaN,-0,NaN,NaN,NaN,0.592923672076722
9,2,1,1,3,1,1,1,0,1,NaN,NaN,-1,-0,NaN,NaN,0.52823000661374
9,2,1,1,4,1,1,1,1,0,1,NaN,-0,-1,-0,NaN,0.496403172448481
9,2,1,1,5,1,1,1,1,1,0,1,-0,-0,-1,-0,0.661627109173423
9,2,1,1,6,1,1,1,1,1,1,0,-0,-0,-0,-1,0.557220056536607
9,2,1,1,7,0,1,1,1,1,1,1,-0,-0,-0,-0,0.547767090261914
9,2,1,1,8,1,1,1,0,1,1,1,-1,-0,-0,-0,0.527549472371902
9,2,1,1,9,1,1,1,1,0,1,1,-0,-1,-0,-0,0.517995152109506
9,2,1,1,10,1,1,1,1,1,0,1,-0,-0,-1,-0,0.594112308197509
9,2,1,1,11,1,1,1,1,1,1,0,-0,-0,-0,-1,0.91202476575927
9,2,1,1,12,1,1,1,1,1,1,1,-0,-0,-0,-0,0.57092568367807
9,2,1,1,13,1,1,1,1,1,1,1,-0,-0,-0,-0,0.509459398723266
9,2,1,1,14,1,1,1,1,1,1,1,-0,-0,-0,-0,0.599219404939504
9,2,1,1,15,1,1,1,1,1,1,1,-0,-0,-0,-0,0.644168828526745
9,2,1,1,16,1,1,1,1,1,1,1,-0,-0,-0,-0,0.708951404110849
9,2,1,1,17,1,1,1,1,1,1,1,-0,-0,-0,-0,0.581389153725468
9,2,1,1,18,0,1,1,1,1,1,1,-0,-0,-0,-0,0.546473406422592
9,2,1,1,19,1,1,1,0,1,1,1,-1,-0,-0,-0,0.527442459835584
9,2,1,1,20,0,1,1,1,0,1,1,-0,-1,-0,-0,0.636528215891303
9,2,1,1,21,1,1,1,0,1,0,1,-1,-0,-1,-0,0.503164647936501
9,2,1,1,22,1,1,1,1,0,1,0,-0,-1,-0,-1,0.593275226889091
9,2,1,1,23,1,1,1,1,1,0,1,-0,-0,-1,-0,0.479395100981492
9,2,1,1,24,1,1,1,1,1,1,0,-0,-0,-0,-1,0.611752404900471
9,2,1,1,25,0,1,1,1,1,1,1,-0,-0,-0,-0,0.721533963322145
9,2,1,1,26,1,1,1,0,1,1,1,-1,-0,-0,-0,0.510535072713537
9,2,1,1,27,1,1,1,1,0,1,1,-0,-1,-0,-0,0.523444203110557
9,2,1,1,28,1,1,1,1,1,0,1,-0,-0,-1,-0,0.476873133757181
9,2,1,1,29,0,1,1,1,1,1,0,-0,-0,-0,-1,0.531670682739787
9,2,1,1,30,1,1,1,0,1,1,1,-1,-0,-0,-0,0.598947966343985
9,2,1,1,31,1,1,1,1,0,1,1,-0,-1,-0,-0,0.498579148177669
9,2,1,1,32,1,1,1,1,1,0,1,-0,-0,-1,-0,0.5595696381788
9,2,1,1,33,1,1,1,1,1,1,0,-0,-0,-0,-1,0.558846722295129
9,2,1,1,34,1,1,1,1,1,1,1,-0,-0,-0,-0,0.613532469658821
9,2,1,1,35,1,1,1,1,1,1,1,-0,-0,-0,-0,0.537693566551752
9,2,1,1,36,0,1,1,1,1,1,1,-0,-0,-0,-0,0.530981547060946
9,2,1,1,37,1,1,1,0,1,1,1,-1,-0,-0,-0,0.535133646211762
9,2,1,1,38,1,1,1,1,0,1,1,-0,-1,-0,-0,0.615358930575894
9,2,1,1,39,1,1,1,1,1,0,1,-0,-0,-1,-0,0.513494553302735
9,2,1,1,40,1,1,1,1,1,1,0,-0,-0,-0,-1,0.519807408509223
9,2,1,1,41,1,1,1,1,1,1,1,-0,-0,-0,-0,0.575716860363173
9,2,1,1,42,1,1,1,1,1,1,1,-0,-0,-0,-0,0.57172159097172
9,2,1,1,43,1,1,1,1,1,1,1,-0,-0,-0,-0,0.547511327793472
9,2,1,1,44,1,1,1,1,1,1,1,-0,-0,-0,-0,0.581772181085398
9,2,1,1,45,1,1,1,1,1,1,1,-0,-0,-0,-0,0.590685355407913
9,2,1,1,46,1,1,1,1,1,1,1,-0,-0,-0,-0,0.532997991740558
9,2,1,1,47,1,1,1,1,1,1,1,-0,-0,-0,-0,0.508816426299745
9,2,1,1,48,1,1,1,1,1,1,1,-0,-0,-0,-0,0.58596941329597
9,2,1,1,49,1,1,1,1,1,1,1,-0,-0,-0,-0,0.622893964191462
9,2,1,1,50,1,1,1,1,1,1,1,-0,-0,-0,-0,0.518920903283288
9,2,1,1,51,1,1,1,1,1,1,1,-0,-0,-0,-0,0.552360083405802
9,2,1,1,52,1,1,1,1,1,1,1,-0,-0,-0,-0,0.603667617891915
9,2,1,1,53,1,1,1,1,1,1,1,-0,-0,-0,-0,0.555502540562884
9,2,1,1,54,1,1,1,1,1,1,1,-0,-0,-0,-0,0.604520838791359
9,2,1,1,55,1,1,1,1,1,1,1,-0,-0,-0,-0,0.601611964684707
9,2,1,1,56,0,1,0,1,1,1,1,-0,-0,-0,-0,0.565200643246499
9,2,1,1,57,0,1,0,0,1,1,1,-1,-0,-0,-0,0.604138513150247
9,2,1,1,58,0,1,0,0,0,1,1,-1,-1,-0,-0,0.575831210902834
9,2,1,1,59,1,1,0,0,0,0,1,-1,-1,-1,-0,0.528904661772685
9,2,1,1,60,0,1,0,1,0,0,0,-0,-1,-1,-1,0.52908772121009
9,2,1,1,61,0,1,0,0,1,0,0,-1,-0,-1,-1,0.57403556792633
9,2,1,1,62,0,1,0,0,0,1,0,-1,-1,-0,-1,0.516401760651206
9,2,1,1,63,1,0,1,0,0,0,1,-1,-1,-1,-0,0.877319582377822
9,2,1,1,64,1,0,1,-1,0,0,0,0,-1,-1,-1,0.573364065843634
9,2,1,1,65,1,0,1,-1,-1,0,0,0,0,-1,-1,0.576066493129474
9,2,1,1,66,1,0,1,-1,-1,-1,0,0,0,0,-1,0.519467028443614
9,2,1,1,67,1,0,1,-1,-1,-1,-1,0,0,0,0,0.527486642899021
9,2,1,1,68,0,0,1,-1,-1,-1,-1,0,0,0,0,0.429264909911581
9,2,1,1,69,1,0,1,-0,-1,-1,-1,1,0,0,0,0.700173052890023
9,2,1,1,70,0,0,1,-1,-0,-1,-1,0,1,0,0,0.516582524127443
9,2,1,1,71,1,0,0,-0,-1,-0,-1,1,0,1,0,0.555548174856085
9,2,1,1,72,0,0,0,-1,-0,-1,-0,0,1,0,1,0.657673103680281
9,2,1,1,73,0,0,0,-0,-1,-0,-1,1,0,1,0,0.647681999838824
9,2,1,1,74,0,0,0,-0,-0,-1,-0,1,1,0,1,0.477702926847996
9,2,1,1,75,1,1,1,-0,-0,-0,-1,1,1,1,0,0.597145283762075
9,2,1,1,76,1,1,1,1,-0,-0,-0,-0,1,1,1,0.483418268820969
9,2,1,1,77,1,1,1,1,1,-0,-0,-0,-0,1,1,0.677825860111625
9,2,1,1,78,1,1,1,1,1,1,-0,-0,-0,-0,1,0.585860380801023
9,2,1,1,79,0,1,1,1,1,1,1,-0,-0,-0,-0,0.692581217586849
9,2,1,1,80,1,1,1,0,1,1,1,-1,-0,-0,-0,0.599514621539129
9,2,1,1,81,1,1,1,1,0,1,1,-0,-1,-0,-0,0.678035963232105
9,2,1,1,82,1,1,1,1,1,0,1,-0,-0,-1,-0,0.64552221617123
9,2,1,1,83,0,1,1,1,1,1,0,-0,-0,-0,-1,0.582276004799496
9,2,1,1,84,0,1,1,0,1,1,1,-1,-0,-0,-0,0.544800191470131
9,2,1,1,85,1,1,1,0,0,1,1,-1,-1,-0,-0,0.659772720075125
9,2,1,1,86,1,1,1,1,0,0,1,-0,-1,-1,-0,0.895321970903751
9,2,1,1,87,0,1,1,1,1,0,0,-0,-0,-1,-1,0.593997746804234
9,2,1,1,88,1,1,1,0,1,1,0,-1,-0,-0,-1,0.581160046982404
9,2,1,1,89,1,1,1,1,0,1,1,-0,-1,-0,-0,0.571207667813724
9,2,1,1,90,1,1,1,1,1,0,1,-0,-0,-1,-0,0.544517194517539
9,2,1,1,91,0,1,0,1,1,1,0,-0,-0,-0,-1,0.599702104162134
9,2,1,1,92,0,1,0,0,1,1,1,-1,-0,-0,-0,0.567240532775031
9,2,1,1,93,0,1,0,0,0,1,1,-1,-1,-0,-0,0.549473942741315
9,2,1,1,94,1,0,1,0,0,0,1,-1,-1,-1,-0,1.03771370261893
9,2,1,1,95,1,0,1,-1,0,0,0,0,-1,-1,-1,0.667918539147649
9,2,1,1,96,1,0,1,-1,-1,0,0,0,0,-1,-1,0.574133069796517
9,2,1,1,97,0,0,1,-1,-1,-1,0,0,0,0,-1,0.573682482023287
9,2,1,1,98,1,0,1,-0,-1,-1,-1,1,0,0,0,0.505504746644874
9,2,1,1,99,1,0,1,-1,-0,-1,-1,0,1,0,0,0.534308208472794
9,2,1,1,100,1,0,1,-1,-1,-0,-1,0,0,1,0,0.589925877487985
9,2,1,1,101,0,0,1,-1,-1,-1,-0,0,0,0,1,0.586418234401208
9,2,1,1,102,1,0,1,-0,-1,-1,-1,1,0,0,0,0.490526036544907
9,2,1,1,103,1,0,1,-1,-0,-1,-1,0,1,0,0,0.581351832159271
9,2,1,1,104,1,0,1,-1,-1,-0,-1,0,0,1,0,0.556152111512347
9,2,1,1,105,0,0,1,-1,-1,-1,-0,0,0,0,1,0.472152600046684
9,2,1,1,106,1,0,0,-0,-1,-1,-1,1,0,0,0,0.716379552835861
9,2,1,1,107,0,0,0,-1,-0,-1,-1,0,1,0,0,0.581587934066192
9,2,1,1,108,0,0,0,-0,-1,-0,-1,1,0,1,0,0.489972069808573
9,2,1,1,109,0,0,0,-0,-0,-1,-0,1,1,0,1,0.49483291508659
9,2,1,1,110,1,1,1,-0,-0,-0,-1,1,1,1,0,0.536128677355009
9,2,1,1,111,0,1,1,1,-0,-0,-0,-0,1,1,1,0.56252381341983
9,2,1,1,112,1,1,1,0,1,-0,-0,-1,-0,1,1,0.494246057995042
9,2,1,1,113,1,1,1,1,0,1,-0,-0,-1,-0,1,0.561790374049451
9,2,1,1,114,0,1,1,1,1,0,1,-0,-0,-1,-0,0.674447780224
9,2,1,1,115,0,1,1,0,1,1,0,-1,-0,-0,-1,0.555982021560339
9,2,1,1,116,1,1,1,0,0,1,1,-1,-1,-0,-0,0.75774763753725
9,2,1,1,117,1,1,1,1,0,0,1,-0,-1,-1,-0,0.606334257379785
9,2,1,1,118,1,1,1,1,1,0,0,-0,-0,-1,-1,0.607133681296546
9,2,1,1,119,1,1,1,1,1,1,0,-0,-0,-0,-1,0.52422180850408
9,2,1,1,120,1,1,1,1,1,1,1,-0,-0,-0,-0,0.521253288068692
9,2,1,1,121,1,1,1,1,1,1,1,-0,-0,-0,-0,0.548754277158878
9,2,1,1,122,1,1,1,1,1,1,1,-0,-0,-0,-0,0.614268708228337
9,2,1,1,123,0,1,1,1,1,1,1,-0,-0,-0,-0,0.577218135829753
9,2,1,1,124,1,1,1,0,1,1,1,-1,-0,-0,-0,0.697147510225477
9,2,1,1,125,0,1,1,1,0,1,1,-0,-1,-0,-0,0.554103259997646
9,2,1,1,126,0,1,0,0,1,0,1,-1,-0,-1,-0,0.618883174054645
9,2,1,1,127,0,1,0,0,0,1,0,-1,-1,-0,-1,0.574683690654638
9,2,1,1,128,1,0,1,0,0,0,1,-1,-1,-1,-0,0.575271906407579
9,2,1,1,129,1,0,1,-1,0,0,0,0,-1,-1,-1,0.498001057596412
9,2,1,1,130,1,0,1,-1,-1,0,0,0,0,-1,-1,0.660522276317351
9,2,1,1,131,1,0,1,-1,-1,-1,0,0,0,0,-1,0.553457530808373
9,2,1,1,132,1,0,1,-1,-1,-1,-1,0,0,0,0,0.551942523990874
9,2,1,1,133,1,0,1,-1,-1,-1,-1,0,0,0,0,0.600856378649041
9,2,1,1,134,1,0,1,-1,-1,-1,-1,0,0,0,0,0.622075107596174
9,2,1,1,135,0,0,1,-1,-1,-1,-1,0,0,0,0,0.528583253249963
9,2,1,1,136,1,0,1,-0,-1,-1,-1,1,0,0,0,0.576228535675909
9,2,1,1,137,1,0,1,-1,-0,-1,-1,0,1,0,0,0.533328074208839
9,2,1,1,138,1,0,1,-1,-1,-0,-1,0,0,1,0,0.493050204167957
9,2,1,1,139,1,0,1,-1,-1,-1,-0,0,0,0,1,0.515466736727831
9,2,1,1,140,1,0,1,-1,-1,-1,-1,0,0,0,0,0.574264958362619
9,2,1,1,141,0,0,1,-1,-1,-1,-1,0,0,0,0,0.564747142991109
9,2,1,1,142,1,0,1,-0,-1,-1,-1,1,0,0,0,0.506654893339146
9,2,1,1,143,0,0,1,-1,-0,-1,-1,0,1,0,0,0.646087081975566
9,2,1,1,144,1,0,1,-0,-1,-0,-1,1,0,1,0,0.534692769593676
9,2,1,1,145,1,0,1,-1,-0,-1,-0,0,1,0,1,0.500706211572833
9,2,1,1,146,1,0,1,-1,-1,-0,-1,0,0,1,0,0.535015601610212
9,2,1,1,147,0,0,1,-1,-1,-1,-0,0,0,0,1,0.548225873142655
9,2,1,1,148,1,0,1,-0,-1,-1,-1,1,0,0,0,0.586817248313309
9,2,1,1,149,1,0,1,-1,-0,-1,-1,0,1,0,0,0.550998738570343
9,2,1,1,150,1,0,1,-1,-1,-0,-1,0,0,1,0,0.501131683064159
9,2,1,1,151,1,0,1,-1,-1,-1,-0,0,0,0,1,0.590551710196451
9,2,1,1,152,1,0,1,-1,-1,-1,-1,0,0,0,0,0.52090227190638
9,2,1,1,153,1,0,1,-1,-1,-1,-1,0,0,0,0,0.55326943167529
9,2,1,1,154,1,0,1,-1,-1,-1,-1,0,0,0,0,0.528767029110895
9,2,1,1,155,1,0,1,-1,-1,-1,-1,0,0,0,0,0.610932064999361
9,2,1,1,156,1,0,1,-1,-1,-1,-1,0,0,0,0,0.516308932914399
9,2,1,1,157,0,0,1,-1,-1,-1,-1,0,0,0,0,0.62281686003189
9,2,1,1,158,0,0,1,-0,-1,-1,-1,1,0,0,0,0.529641727702256
9,2,1,1,159,1,0,1,-0,-0,-1,-1,1,1,0,0,0.502354964180995
9,2,1,1,160,0,0,1,-1,-0,-0,-1,0,1,1,0,0.706523344608286
10,2,1,1,1,0,0,0,NaN,NaN,NaN,NaN,NaN,NaN,NaN,NaN,1.01266864762511
10,2,1,1,2,0,0,0,-0,NaN,NaN,NaN,1,NaN,NaN,NaN,0.561034421887598
10,2,1,1,3,0,0,0,-0,-0,NaN,NaN,1,1,NaN,NaN,0.547922872294293
10,2,1,1,4,1,1,1,-0,-0,-0,NaN,1,1,1,NaN,0.832931939476111
10,2,1,1,5,1,1,1,1,-0,-0,-0,-0,1,1,1,0.520477417416259
10,2,1,1,6,1,1,1,1,1,-0,-0,-0,-0,1,1,0.849085363857739
10,2,1,1,7,1,1,1,1,1,1,-0,-0,-0,-0,1,0.755551730566367
10,2,1,1,8,1,1,1,1,1,1,1,-0,-0,-0,-0,0.464216525429947
10,2,1,1,9,0,0,0,1,1,1,1,-0,-0,-0,-0,0.875088587745267
10,2,1,1,10,1,1,1,-0,1,1,1,1,-0,-0,-0,1.06079186409261
10,2,1,1,11,1,1,1,1,-0,1,1,-0,1,-0,-0,0.625648618621199
10,2,1,1,12,1,1,1,1,1,-0,1,-0,-0,1,-0,0.60241629185839
10,2,1,1,13,0,1,1,1,1,1,-0,-0,-0,-0,1,0.480234493727039
10,2,1,1,14,0,0,0,0,1,1,1,-1,-0,-0,-0,0.545371702766715
10,2,1,1,15,0,1,1,-0,0,1,1,1,-1,-0,-0,0.726580948721676
10,2,1,1,16,0,0,0,0,-0,0,1,-1,1,-1,-0,0.729013477975968
10,2,1,1,17,1,1,1,-0,0,-0,0,1,-1,1,-1,0.756436086958274
10,2,1,1,18,1,1,1,1,-0,0,-0,-0,1,-1,1,0.624355219104473
10,2,1,1,19,0,0,0,1,1,-0,0,-0,-0,1,-1,0.382194695357612
10,2,1,1,20,0,1,1,-0,1,1,-0,1,-0,-0,1,0.777759367920225
10,2,1,1,21,1,1,1,0,-0,1,1,-1,1,-0,-0,0.775919839874405
10,2,1,1,22,0,0,0,1,0,-0,1,-0,-1,1,-0,0.639904132109223
10,2,1,1,23,1,1,1,-0,1,0,-0,1,-0,-1,1,0.566623175367567
10,2,1,1,24,0,1,1,1,-0,1,0,-0,1,-0,-1,0.698812278373225
10,2,1,1,25,1,1,1,0,1,-0,1,-1,-0,1,-0,0.852740005546366
10,2,1,1,26,0,1,1,1,0,1,-0,-0,-1,-0,1,0.573835907518514
10,2,1,1,27,1,1,1,0,1,0,1,-1,-0,-1,-0,0.667363002481579
10,2,1,1,28,1,1,1,1,0,1,0,-0,-1,-0,-1,0.56290737170275
10,2,1,1,29,0,1,1,1,1,0,1,-0,-0,-1,-0,0.534342788687354
10,2,1,1,30,1,1,1,0,1,1,0,-1,-0,-0,-1,0.567474729170499
10,2,1,1,31,0,1,1,1,0,1,1,-0,-1,-0,-0,0.624311419272999
10,2,1,1,32,0,1,1,0,1,0,1,-1,-0,-1,-0,0.661886543075525
10,2,1,1,33,0,1,1,0,0,1,0,-1,-1,-0,-1,0.600180847472075
10,2,1,1,34,1,1,1,0,0,0,1,-1,-1,-1,-0,0.756996728661761
10,2,1,1,35,1,1,1,1,0,0,0,-0,-1,-1,-1,0.77001598744755
10,2,1,1,36,1,1,1,1,1,0,0,-0,-0,-1,-1,0.642376734409481
10,2,1,1,37,1,1,1,1,1,1,0,-0,-0,-0,-1,0.602707845195255
10,2,1,1,38,1,1,1,1,1,1,1,-0,-0,-0,-0,0.757971232949785
10,2,1,1,39,1,1,1,1,1,1,1,-0,-0,-0,-0,0.680828848915553
10,2,1,1,40,1,1,1,1,1,1,1,-0,-0,-0,-0,0.465777489589527
10,2,1,1,41,1,1,1,1,1,1,1,-0,-0,-0,-0,0.560134650444525
10,2,1,1,42,1,1,1,1,1,1,1,-0,-0,-0,-0,0.587500605481182
10,2,1,1,43,1,1,1,1,1,1,1,-0,-0,-0,-0,0.625935089519771
10,2,1,1,44,1,1,1,1,1,1,1,-0,-0,-0,-0,0.668226186739048
10,2,1,1,45,1,1,1,1,1,1,1,-0,-0,-0,-0,0.636474684062705
10,2,1,1,46,1,1,1,1,1,1,1,-0,-0,-0,-0,0.476587287896109
10,2,1,1,47,0,1,1,1,1,1,1,-0,-0,-0,-0,0.45024658330658
10,2,1,1,48,0,0,0,0,1,1,1,-1,-0,-0,-0,0.565982498181256
10,2,1,1,49,0,1,1,-0,0,1,1,1,-1,-0,-0,0.634109369257203
10,2,1,1,50,1,1,1,0,-0,0,1,-1,1,-1,-0,0.493569352016493
10,2,1,1,51,1,1,1,1,0,-0,0,-0,-1,1,-1,0.624272208668117
10,2,1,1,52,0,1,1,1,1,0,-0,-0,-0,-1,1,0.665102995328198
10,2,1,1,53,1,1,1,0,1,1,0,-1,-0,-0,-1,0.523074752225511
10,2,1,1,54,1,1,1,1,0,1,1,-0,-1,-0,-0,0.508158196054865
10,2,1,1,55,0,1,1,1,1,0,1,-0,-0,-1,-0,0.486467789523886
10,2,1,1,56,0,1,0,0,1,1,0,-1,-0,-0,-1,0.542981935803255
10,2,1,1,57,0,1,0,0,0,1,1,-1,-1,-0,-0,0.577026962637319
10,2,1,1,58,0,1,0,0,0,0,1,-1,-1,-1,-0,0.438485510549071
10,2,1,1,59,0,1,0,0,0,0,0,-1,-1,-1,-1,0.580533885575278
10,2,1,1,60,0,0,1,0,0,0,0,-1,-1,-1,-1,0.826384244115616
10,2,1,1,61,1,0,1,-0,0,0,0,1,-1,-1,-1,0.835663840862253
10,2,1,1,62,1,0,1,-1,-0,0,0,0,1,-1,-1,0.90225707731588
10,2,1,1,63,0,0,1,-1,-1,-0,0,0,0,1,-1,0.523727957737719
10,2,1,1,64,1,0,1,-0,-1,-1,-0,1,0,0,1,0.706923393569014
10,2,1,1,65,1,0,1,-1,-0,-1,-1,0,1,0,0,0.493544115601253
10,2,1,1,66,0,1,0,-1,-1,-0,-1,0,0,1,0,0.446010546806065
10,2,1,1,67,1,0,1,0,-1,-1,-0,-1,0,0,1,0.617953015043895
10,2,1,1,68,1,0,1,-1,0,-1,-1,0,-1,0,0,0.523438203807018
10,2,1,1,69,0,0,1,-1,-1,0,-1,0,0,-1,0,0.526434955860168
10,2,1,1,70,1,0,1,-0,-1,-1,0,1,0,0,-1,0.550054362007359
10,2,1,1,71,0,0,0,-1,-0,-1,-1,0,1,0,0,0.547777471212612
10,2,1,1,72,0,0,0,-0,-1,-0,-1,1,0,1,0,0.752869676140108
10,2,1,1,73,1,1,1,-0,-0,-1,-0,1,1,0,1,0.856988289680885
10,2,1,1,74,1,1,1,1,-0,-0,-1,-0,1,1,0,0.565796718638012
10,2,1,1,75,1,1,1,1,1,-0,-0,-0,-0,1,1,0.565198372016312
10,2,1,1,76,1,1,1,1,1,1,-0,-0,-0,-0,1,0.742229909177695
10,2,1,1,77,1,0,0,1,1,1,1,-0,-0,-0,-0,0.898190823547338
10,2,1,1,78,0,0,0,-1,1,1,1,0,-0,-0,-0,0.539878605653939
10,2,1,1,79,0,0,0,-0,-1,1,1,1,0,-0,-0,0.738134253475437
10,2,1,1,80,0,1,1,-0,-0,-1,1,1,1,0,-0,0.507258226793056
10,2,1,1,81,1,1,1,0,-0,-0,-1,-1,1,1,0,0.568547596452845
10,2,1,1,82,1,1,1,1,0,-0,-0,-0,-1,1,1,0.619042262736912
10,2,1,1,83,1,1,1,1,1,0,-0,-0,-0,-1,1,0.865714422285237
10,2,1,1,84,1,1,1,1,1,1,0,-0,-0,-0,-1,0.587963801433943
10,2,1,1,85,0,1,1,1,1,1,1,-0,-0,-0,-0,0.472306230909453
10,2,1,1,86,1,1,1,0,1,1,1,-1,-0,-0,-0,0.427822922418272
10,2,1,1,87,1,1,1,1,0,1,1,-0,-1,-0,-0,0.545226236856251
10,2,1,1,88,0,1,1,1,1,0,1,-0,-0,-1,-0,0.465585276975617
10,2,1,1,89,1,1,1,0,1,1,0,-1,-0,-0,-1,0.466816674797883
10,2,1,1,90,0,0,0,1,0,1,1,-0,-1,-0,-0,0.433170275606244
10,2,1,1,91,0,1,0,-0,1,0,1,1,-0,-1,-0,0.530893757728336
10,2,1,1,92,0,1,0,0,-0,1,0,-1,1,-0,-1,0.531815968737646
10,2,1,1,93,0,0,1,0,0,-0,1,-1,-1,1,-0,0.569475093394431
10,2,1,1,94,0,1,0,-0,0,0,-0,1,-1,-1,1,0.692379361506028
10,2,1,1,95,1,0,1,0,-0,0,0,-1,1,-1,-1,0.720717924188648
10,2,1,1,96,1,0,1,-1,0,-0,0,0,-1,1,-1,0.582560912363988
10,2,1,1,97,1,0,1,-1,-1,0,-0,0,0,-1,1,0.645826359490457
10,2,1,1,98,1,0,1,-1,-1,-1,0,0,0,0,-1,0.749000133659138
10,2,1,1,99,1,0,1,-1,-1,-1,-1,0,0,0,0,0.479433288444852
10,2,1,1,100,0,0,1,-1,-1,-1,-1,0,0,0,0,0.550875411176094
10,2,1,1,101,0,0,1,-0,-1,-1,-1,1,0,0,0,0.53100501994777
10,2,1,1,102,0,1,0,-0,-0,-1,-1,1,1,0,0,0.721998722874559
10,2,1,1,103,1,0,1,0,-0,-0,-1,-1,1,1,0,0.561234844586579
10,2,1,1,104,0,0,1,-1,0,-0,-0,0,-1,1,1,0.678653000341001
10,2,1,1,105,0,1,0,-0,-1,0,-0,1,0,-1,1,0.812127122026141
10,2,1,1,106,1,0,0,0,-0,-1,0,-1,1,0,-1,0.5830090364434
10,2,1,1,107,0,0,0,-1,0,-0,-1,0,-1,1,0,0.565573996045714
10,2,1,1,108,1,0,0,-0,-1,0,-0,1,0,-1,1,0.729290778770519
10,2,1,1,109,0,0,0,-1,-0,-1,0,0,1,0,-1,0.630929619470407
10,2,1,1,110,1,0,0,-0,-1,-0,-1,1,0,1,0,0.669179363845615
10,2,1,1,111,0,0,0,-1,-0,-1,-0,0,1,0,1,0.819002017604362
10,2,1,1,112,1,0,0,-0,-1,-0,-1,1,0,1,0,0.646174959732889
10,2,1,1,113,0,0,0,-1,-0,-1,-0,0,1,0,1,0.482444160043087
10,2,1,1,114,0,0,0,-0,-1,-0,-1,1,0,1,0,0.719516527100495
10,2,1,1,115,1,1,1,-0,-0,-1,-0,1,1,0,1,0.650778976563743
10,2,1,1,116,1,1,1,1,-0,-0,-1,-0,1,1,0,0.584174961404642
10,2,1,1,117,0,1,1,1,1,-0,-0,-0,-0,1,1,0.539867458381195
10,2,1,1,118,1,1,1,0,1,1,-0,-1,-0,-0,1,0.552505338728224
10,2,1,1,119,1,1,1,1,0,1,1,-0,-1,-0,-0,0.557130956072797
10,2,1,1,120,1,1,1,1,1,0,1,-0,-0,-1,-0,0.638819809133565
10,2,1,1,121,0,1,1,1,1,1,0,-0,-0,-0,-1,0.585141511230177
10,2,1,1,122,1,1,1,0,1,1,1,-1,-0,-0,-0,0.583310556496144
10,2,1,1,123,1,1,1,1,0,1,1,-0,-1,-0,-0,0.591955023955961
10,2,1,1,124,0,1,1,1,1,0,1,-0,-0,-1,-0,0.626140091091656
10,2,1,1,125,0,1,1,0,1,1,0,-1,-0,-0,-1,0.635740597663244
10,2,1,1,126,1,0,1,0,0,1,1,-1,-1,-0,-0,0.474868785629951
10,2,1,1,127,1,0,1,-1,0,0,1,0,-1,-1,-0,0.550491058122134
10,2,1,1,128,1,0,1,-1,-1,0,0,0,0,-1,-1,0.565444639549241
10,2,1,1,129,0,0,1,-1,-1,-1,0,0,0,0,-1,0.541551074962626
10,2,1,1,130,1,0,1,-0,-1,-1,-1,1,0,0,0,0.588426496160537
10,2,1,1,131,1,0,1,-1,-0,-1,-1,0,1,0,0,0.59751025843434
10,2,1,1,132,1,0,1,-1,-1,-0,-1,0,0,1,0,0.548369023879786
10,2,1,1,133,1,0,1,-1,-1,-1,-0,0,0,0,1,0.569532538946078
10,2,1,1,134,1,0,1,-1,-1,-1,-1,0,0,0,0,0.56506479519885
10,2,1,1,135,1,0,1,-1,-1,-1,-1,0,0,0,0,0.542741312077851
10,2,1,1,136,0,0,1,-1,-1,-1,-1,0,0,0,0,0.562311889756529
10,2,1,1,137,0,0,1,-0,-1,-1,-1,1,0,0,0,0.694960862580047
10,2,1,1,138,1,1,0,-0,-0,-1,-1,1,1,0,0,0.600976085486764
10,2,1,1,139,0,1,0,1,-0,-0,-1,-0,1,1,0,0.538101374695543
10,2,1,1,140,0,1,0,0,1,-0,-0,-1,-0,1,1,0.529275991928444
10,2,1,1,141,1,0,1,0,0,1,-0,-1,-1,-0,1,0.931277385338035
10,2,1,1,142,1,0,1,-1,0,0,1,0,-1,-1,-0,0.504872918409092
10,2,1,1,143,1,0,1,-1,-1,0,0,0,0,-1,-1,0.61903280927072
10,2,1,1,144,1,0,1,-1,-1,-1,0,0,0,0,-1,0.551254834161227
10,2,1,1,145,1,0,1,-1,-1,-1,-1,0,0,0,0,0.512529486142739
10,2,1,1,146,1,0,1,-1,-1,-1,-1,0,0,0,0,0.774378335663641
10,2,1,1,147,0,0,1,-1,-1,-1,-1,0,0,0,0,0.616781463650113
10,2,1,1,148,1,0,1,-0,-1,-1,-1,1,0,0,0,0.718010432192386
10,2,1,1,149,0,0,1,-1,-0,-1,-1,0,1,0,0,0.588985330778087
10,2,1,1,150,1,0,1,-0,-1,-0,-1,1,0,1,0,0.607331036604592
10,2,1,1,151,1,0,1,-1,-0,-1,-0,0,1,0,1,0.584166736283805
10,2,1,1,152,1,0,1,-1,-1,-0,-1,0,0,1,0,0.516073762802989
10,2,1,1,153,0,0,1,-1,-1,-1,-0,0,0,0,1,0.60517681093188
10,2,1,1,154,1,0,1,-0,-1,-1,-1,1,0,0,0,0.5695443027289
10,2,1,1,155,1,0,1,-1,-0,-1,-1,0,1,0,0,0.879548073618935
10,2,1,1,156,0,0,1,-1,-1,-0,-1,0,0,1,0,0.626368925972201
10,2,1,1,157,1,0,1,-0,-1,-1,-0,1,0,0,1,0.636152062044857
10,2,1,1,158,1,0,1,-1,-0,-1,-1,0,1,0,0,0.57866138418467
10,2,1,1,159,1,0,1,-1,-1,-0,-1,0,0,1,0,0.426227847467089
10,2,1,1,160,1,0,1,-1,-1,-1,-0,0,0,0,1,0.518296762078535
11,2,1,1,1,1,0,1,NaN,NaN,NaN,NaN,NaN,NaN,NaN,NaN,0.966646749024221
11,2,1,1,2,1,0,1,-1,NaN,NaN,NaN,0,NaN,NaN,NaN,0.590777265892257
11,2,1,1,3,1,0,1,-1,-1,NaN,NaN,0,0,NaN,NaN,0.562391127900355
11,2,1,1,4,1,0,1,-1,-1,-1,NaN,0,0,0,NaN,0.509421392817103
11,2,1,1,5,1,0,1,-1,-1,-1,-1,0,0,0,0,0.557592979108676
11,2,1,1,6,0,0,1,-1,-1,-1,-1,0,0,0,0,0.760428672676881
11,2,1,1,7,0,1,0,-0,-1,-1,-1,1,0,0,0,0.810677214098632
11,2,1,1,8,1,0,1,0,-0,-1,-1,-1,1,0,0,0.541073107690863
11,2,1,1,9,1,0,1,-1,0,-0,-1,0,-1,1,0,0.621036462120401
11,2,1,1,10,1,0,1,-1,-1,0,-0,0,0,-1,1,0.761216926526458
11,2,1,1,11,1,0,1,-1,-1,-1,0,0,0,0,-1,0.574833635853338
11,2,1,1,12,1,1,0,-1,-1,-1,-1,0,0,0,0,0.705111944637338
11,2,1,1,13,0,0,0,1,-1,-1,-1,-0,0,0,0,0
11,2,1,1,14,1,0,1,NaN,1,-1,-1,NaN,-0,0,0,0.492316438997022
11,2,1,1,15,1,0,1,-1,NaN,1,-1,0,NaN,-0,0,0.655958600098984
11,2,1,1,16,1,0,1,-1,-1,NaN,1,0,0,NaN,-0,0.558226297516512
11,2,1,1,17,1,0,1,-1,-1,-1,NaN,0,0,0,NaN,0.618196507097309
11,2,1,1,18,0,1,0,-1,-1,-1,-1,0,0,0,0,0.450230924200696
11,2,1,1,19,1,0,1,0,-1,-1,-1,-1,0,0,0,0.522540047583561
11,2,1,1,20,0,0,1,-1,0,-1,-1,0,-1,0,0,0.643004642389315
11,2,1,1,21,0,1,0,-0,-1,0,-1,1,0,-1,0,0.623584207589374
11,2,1,1,22,0,1,0,0,-0,-1,0,-1,1,0,-1,0.912383716384056
11,2,1,1,23,1,0,1,0,0,-0,-1,-1,-1,1,0,0.563039731474646
11,2,1,1,24,1,0,1,-1,0,0,-0,0,-1,-1,1,0.559632793453375
11,2,1,1,25,1,0,1,-1,-1,0,0,0,0,-1,-1,0.629083553985765
11,2,1,1,26,1,0,1,-1,-1,-1,0,0,0,0,-1,0.583688229122117
11,2,1,1,27,1,0,1,-1,-1,-1,-1,0,0,0,0,0.500220209580675
11,2,1,1,28,0,0,1,-1,-1,-1,-1,0,0,0,0,0.526323704822516
11,2,1,1,29,0,1,0,-0,-1,-1,-1,1,0,0,0,0.429118889007668
11,2,1,1,30,1,0,1,0,-0,-1,-1,-1,1,0,0,0.493522535286502
11,2,1,1,31,0,0,1,-1,0,-0,-1,0,-1,1,0,0.456113403216023
11,2,1,1,32,0,1,0,-0,-1,0,-0,1,0,-1,1,0.611868615336334
11,2,1,1,33,1,0,1,0,-0,-1,0,-1,1,0,-1,0.733725538320641
11,2,1,1,34,1,0,1,-1,0,-0,-1,0,-1,1,0,0.482300538988966
11,2,1,1,35,1,0,1,-1,-1,0,-0,0,0,-1,1,0.469467096610288
11,2,1,1,36,1,0,1,-1,-1,-1,0,0,0,0,-1,0.478523224644277
11,2,1,1,37,1,0,1,-1,-1,-1,-1,0,0,0,0,0.53888914470167
11,2,1,1,38,1,0,1,-1,-1,-1,-1,0,0,0,0,0.462372714392586
11,2,1,1,39,1,0,1,-1,-1,-1,-1,0,0,0,0,0.468936028723874
11,2,1,1,40,1,0,1,-1,-1,-1,-1,0,0,0,0,0.480084038507812
11,2,1,1,41,1,0,1,-1,-1,-1,-1,0,0,0,0,0.433506132712409
11,2,1,1,42,1,0,1,-1,-1,-1,-1,0,0,0,0,0.69779761748805
11,2,1,1,43,0,1,0,-1,-1,-1,-1,0,0,0,0,0.553429729937307
11,2,1,1,44,1,0,1,0,-1,-1,-1,-1,0,0,0,0.569209751256494
11,2,1,1,45,0,0,1,-1,0,-1,-1,0,-1,0,0,0.60341657199001
11,2,1,1,46,1,0,1,-0,-1,0,-1,1,0,-1,0,0.493628445118702
11,2,1,1,47,0,1,0,-1,-0,-1,0,0,1,0,-1,0.528418687179283
11,2,1,1,48,0,0,1,0,-1,-0,-1,-1,0,1,0,0.455619481461326
11,2,1,1,49,0,1,0,-0,0,-1,-0,1,-1,0,1,0.474014863799084
11,2,1,1,50,0,1,0,0,-0,0,-1,-1,1,-1,0,0.444622179079261
11,2,1,1,51,1,0,1,0,0,-0,0,-1,-1,1,-1,0.45585414951347
11,2,1,1,52,1,0,1,-1,0,0,-0,0,-1,-1,1,0.625663839619847
11,2,1,1,53,1,0,1,-1,-1,0,0,0,0,-1,-1,0.588076274794275
11,2,1,1,54,1,0,1,-1,-1,-1,0,0,0,0,-1,0.608142000040061
11,2,1,1,55,1,0,1,-1,-1,-1,-1,0,0,0,0,0.495283034377735
11,2,1,1,56,1,0,0,-1,-1,-1,-1,0,0,0,0,0.506665953138281
11,2,1,1,57,0,0,0,-1,-1,-1,-1,0,0,0,0,0.568482785099377
11,2,1,1,58,1,1,1,-0,-1,-1,-1,1,0,0,0,0.737198077617222
11,2,1,1,59,1,1,1,1,-0,-1,-1,-0,1,0,0,0.825407875654946
11,2,1,1,60,1,1,1,1,1,-0,-1,-0,-0,1,0,0.491642773604553
11,2,1,1,61,1,1,1,1,1,1,-0,-0,-0,-0,1,0.579568740309469
11,2,1,1,62,1,1,1,1,1,1,1,-0,-0,-0,-0,0.605919976007954
11,2,1,1,63,1,1,1,1,1,1,1,-0,-0,-0,-0,0.529087184559557
11,2,1,1,64,0,1,1,1,1,1,1,-0,-0,-0,-0,0.503242316148771
11,2,1,1,65,1,1,1,0,1,1,1,-1,-0,-0,-0,0.472197420003795
11,2,1,1,66,1,1,1,1,0,1,1,-0,-1,-0,-0,0.557170755586867
11,2,1,1,67,1,1,1,1,1,0,1,-0,-0,-1,-0,0.496507651438151
11,2,1,1,68,1,1,1,1,1,1,0,-0,-0,-0,-1,0.554102347759908
11,2,1,1,69,1,1,1,1,1,1,1,-0,-0,-0,-0,0.464496547529961
11,2,1,1,70,0,1,1,1,1,1,1,-0,-0,-0,-0,0.558928976422294
11,2,1,1,71,0,1,0,0,1,1,1,-1,-0,-0,-0,0.576759834126506
11,2,1,1,72,1,1,0,0,0,1,1,-1,-1,-0,-0,0.710413210409342
11,2,1,1,73,0,1,0,1,0,0,1,-0,-1,-1,-0,0.520731731180376
11,2,1,1,74,1,0,1,0,1,0,0,-1,-0,-1,-1,0.95380201427497
11,2,1,1,75,1,0,1,-1,0,1,0,0,-1,-0,-1,0.644921289563626
11,2,1,1,76,1,0,1,-1,-1,0,1,0,0,-1,-0,0.56867210489736
11,2,1,1,77,1,0,1,-1,-1,-1,0,0,0,0,-1,0.54514398758306
11,2,1,1,78,0,0,1,-1,-1,-1,-1,0,0,0,0,0.649050153710505
11,2,1,1,79,1,0,1,-0,-1,-1,-1,1,0,0,0,0.685412705838417
11,2,1,1,80,1,0,1,-1,-0,-1,-1,0,1,0,0,0.854289411689933
11,2,1,1,81,1,0,1,-1,-1,-0,-1,0,0,1,0,0.636675707736231
11,2,1,1,82,1,0,1,-1,-1,-1,-0,0,0,0,1,0.558684311176648
11,2,1,1,83,1,0,1,-1,-1,-1,-1,0,0,0,0,0.616848998877231
11,2,1,1,84,0,1,0,-1,-1,-1,-1,0,0,0,0,0.535337458899221
11,2,1,1,85,1,0,1,0,-1,-1,-1,-1,0,0,0,0.445728014395399
11,2,1,1,86,0,1,0,-1,0,-1,-1,0,-1,0,0,0.539287384048976
11,2,1,1,87,1,0,1,0,-1,0,-1,-1,0,-1,0,0.642319240871075
11,2,1,1,88,1,0,1,-1,0,-1,0,0,-1,0,-1,0.799187656049526
11,2,1,1,89,1,0,1,-1,-1,0,-1,0,0,-1,0,0.581263447992342
11,2,1,1,90,0,0,1,-1,-1,-1,0,0,0,0,-1,0.539647322431165
11,2,1,1,91,0,0,0,-0,-1,-1,-1,1,0,0,0,0.634357232076127
11,2,1,1,92,0,0,0,-0,-0,-1,-1,1,1,0,0,0.840156827416649
11,2,1,1,93,1,1,1,-0,-0,-0,-1,1,1,1,0,0.534655881763229
11,2,1,1,94,1,1,1,1,-0,-0,-0,-0,1,1,1,0.573845168480148
11,2,1,1,95,1,1,1,1,1,-0,-0,-0,-0,1,1,0.60443799053678
11,2,1,1,96,1,1,1,1,1,1,-0,-0,-0,-0,1,0.525125878822791
11,2,1,1,97,0,1,1,1,1,1,1,-0,-0,-0,-0,0.524281928330993
11,2,1,1,98,1,1,1,0,1,1,1,-1,-0,-0,-0,0.550777478413693
11,2,1,1,99,1,1,1,1,0,1,1,-0,-1,-0,-0,0.729572296701235
11,2,1,1,100,1,1,1,1,1,0,1,-0,-0,-1,-0,0.540836083858949
11,2,1,1,101,1,1,1,1,1,1,0,-0,-0,-0,-1,0.501432110110045
11,2,1,1,102,1,1,1,1,1,1,1,-0,-0,-0,-0,0.601698902975386
11,2,1,1,103,0,0,0,1,1,1,1,-0,-0,-0,-0,0.628528051151989
11,2,1,1,104,1,1,1,-0,1,1,1,1,-0,-0,-0,1.1716044388902
11,2,1,1,105,1,0,0,1,-0,1,1,-0,1,-0,-0,0.716464235591275
11,2,1,1,106,0,1,0,-1,1,-0,1,0,-0,1,-0,0.526590522080824
11,2,1,1,107,0,1,0,0,-1,1,-0,-1,0,-0,1,0.6416300447097
11,2,1,1,108,0,0,1,0,0,-1,1,-1,-1,0,-0,0.862529585249149
11,2,1,1,109,0,1,0,-0,0,0,-1,1,-1,-1,0,0.47113886568377
11,2,1,1,110,1,0,1,0,-0,0,0,-1,1,-1,-1,0.501793732290025
11,2,1,1,111,1,0,1,-1,0,-0,0,0,-1,1,-1,0.559632966210529
11,2,1,1,112,1,0,1,-1,-1,0,-0,0,0,-1,1,0.541119469097339
11,2,1,1,113,1,0,1,-1,-1,-1,0,0,0,0,-1,0.565473429814574
11,2,1,1,114,0,0,1,-1,-1,-1,-1,0,0,0,0,0.597696443608356
11,2,1,1,115,0,0,1,-0,-1,-1,-1,1,0,0,0,0.638883205798265
11,2,1,1,116,1,1,0,-0,-0,-1,-1,1,1,0,0,0.5710420641974
11,2,1,1,117,0,1,0,1,-0,-0,-1,-0,1,1,0,0.52883712107041
11,2,1,1,118,1,0,1,0,1,-0,-0,-1,-0,1,1,0.483656094618709
11,2,1,1,119,0,0,1,-1,0,1,-0,0,-1,-0,1,0.586632590288218
11,2,1,1,120,0,1,0,-0,-1,0,1,1,0,-1,-0,0.522791669896833
11,2,1,1,121,1,0,1,0,-0,-1,0,-1,1,0,-1,0.587800976729568
11,2,1,1,122,0,0,1,-1,0,-0,-1,0,-1,1,0,0.565816794536204
11,2,1,1,123,1,0,1,-0,-1,0,-0,1,0,-1,1,0.591320699114931
11,2,1,1,124,1,0,1,-1,-0,-1,0,0,1,0,-1,0.49953363752411
11,2,1,1,125,1,0,1,-1,-1,-0,-1,0,0,1,0,0.55159658762841
11,2,1,1,126,0,0,0,-1,-1,-1,-0,0,0,0,1,0.503504401464852
11,2,1,1,127,1,1,1,-0,-1,-1,-1,1,0,0,0,0.808276599590954
11,2,1,1,128,1,1,1,1,-0,-1,-1,-0,1,0,0,0.628629131803336
11,2,1,1,129,0,0,0,1,1,-0,-1,-0,-0,1,0,0.494842631589563
11,2,1,1,130,1,1,1,-0,1,1,-0,1,-0,-0,1,0.544265063622788
11,2,1,1,131,1,1,1,1,-0,1,1,-0,1,-0,-0,0.519571870655909
11,2,1,1,132,1,1,1,1,1,-0,1,-0,-0,1,-0,0.511778420725477
11,2,1,1,133,1,1,1,1,1,1,-0,-0,-0,-0,1,0.663466467065973
11,2,1,1,134,1,1,1,1,1,1,1,-0,-0,-0,-0,0.618376541448015
11,2,1,1,135,0,1,1,1,1,1,1,-0,-0,-0,-0,0.518927058717509
11,2,1,1,136,0,0,0,0,1,1,1,-1,-0,-0,-0,0.687959546754428
11,2,1,1,137,0,1,1,-0,0,1,1,1,-1,-0,-0,0.527456521666409
11,2,1,1,138,0,0,0,0,-0,0,1,-1,1,-1,-0,0.478080127245448
11,2,1,1,139,1,1,1,-0,0,-0,0,1,-1,1,-1,0.494028531664298
11,2,1,1,140,0,1,1,1,-0,0,-0,-0,1,-1,1,0.53502426787054
11,2,1,1,141,0,1,1,0,1,-0,0,-1,-0,1,-1,0.615030928544456
11,2,1,1,142,1,0,0,0,0,1,-0,-1,-1,-0,1,0.46780358078513
11,2,1,1,143,0,0,0,-1,0,0,1,0,-1,-1,-0,0.564233252245685
11,2,1,1,144,1,1,1,-0,-1,0,0,1,0,-1,-1,0.600782086050913
11,2,1,1,145,1,1,1,1,-0,-1,0,-0,1,0,-1,0.563492264354863
11,2,1,1,146,1,1,1,1,1,-0,-1,-0,-0,1,0,0.598608599096679
11,2,1,1,147,0,1,1,1,1,1,-0,-0,-0,-0,1,0.563570884904493
11,2,1,1,148,0,0,0,0,1,1,1,-1,-0,-0,-0,0.600880109201171
11,2,1,1,149,1,1,1,-0,0,1,1,1,-1,-0,-0,0.543624802849536
11,2,1,1,150,0,1,1,1,-0,0,1,-0,1,-1,-0,0.664561788922128
11,2,1,1,151,0,0,0,0,1,-0,0,-1,-0,1,-1,0.669309095648259
11,2,1,1,152,1,1,1,-0,0,1,-0,1,-1,-0,1,0.50698683770861
11,2,1,1,153,0,1,1,1,-0,0,1,-0,1,-1,-0,0.570725001002756
11,2,1,1,154,1,0,0,0,1,-0,0,-1,-0,1,-1,0.509338018271592
11,2,1,1,155,0,0,0,-1,0,1,-0,0,-1,-0,1,0.500966710663761
11,2,1,1,156,1,1,1,-0,-1,0,1,1,0,-1,-0,0.822394344792883
11,2,1,1,157,0,1,1,1,-0,-1,0,-0,1,0,-1,0.658863702282815
11,2,1,1,158,1,0,0,0,1,-0,-1,-1,-0,1,0,0.633837349296755
11,2,1,1,159,1,1,1,-1,0,1,-0,0,-1,-0,1,0.531757054640366
11,2,1,1,160,0,1,1,1,-1,0,1,-0,0,-1,-0,0.616443874973356
12,2,1,1,1,1,0,1,NaN,NaN,NaN,NaN,NaN,NaN,NaN,NaN,0.799472758439606
12,2,1,1,2,1,0,1,-1,NaN,NaN,NaN,0,NaN,NaN,NaN,0.547787495113198
12,2,1,1,3,1,0,1,-1,-1,NaN,NaN,0,0,NaN,NaN,0.4944810971474
12,2,1,1,4,1,0,1,-1,-1,-1,NaN,0,0,0,NaN,0.460116956764296
12,2,1,1,5,0,0,1,-1,-1,-1,-1,0,0,0,0,0.51631378902448
12,2,1,1,6,1,0,1,-0,-1,-1,-1,1,0,0,0,0.632053737966316
12,2,1,1,7,1,0,1,-1,-0,-1,-1,0,1,0,0,0.543674871268649
12,2,1,1,8,1,0,1,-1,-1,-0,-1,0,0,1,0,0.474030865414534
12,2,1,1,9,1,0,1,-1,-1,-1,-0,0,0,0,1,0.586930148328975
12,2,1,1,10,1,0,1,-1,-1,-1,-1,0,0,0,0,0.524949769937848
12,2,1,1,11,1,0,1,-1,-1,-1,-1,0,0,0,0,0.491695856876959
12,2,1,1,12,0,0,1,-1,-1,-1,-1,0,0,0,0,0.46181845141632
12,2,1,1,13,1,0,1,-0,-1,-1,-1,1,0,0,0,0.468109565037139
12,2,1,1,14,1,0,1,-1,-0,-1,-1,0,1,0,0,0.490395146474611
12,2,1,1,15,1,0,1,-1,-1,-0,-1,0,0,1,0,0.465060202093809
12,2,1,1,16,0,0,1,-1,-1,-1,-0,0,0,0,1,0.436343176828586
12,2,1,1,17,1,0,1,-0,-1,-1,-1,1,0,0,0,0.455945471769382
12,2,1,1,18,1,0,1,-1,-0,-1,-1,0,1,0,0,0.497595830144974
12,2,1,1,19,0,0,1,-1,-1,-0,-1,0,0,1,0,0.479073323487
12,2,1,1,20,1,0,1,-0,-1,-1,-0,1,0,0,1,0.439307572167991
12,2,1,1,21,1,0,1,-1,-0,-1,-1,0,1,0,0,0.443489738260496
12,2,1,1,22,1,0,1,-1,-1,-0,-1,0,0,1,0,0.434973665656571
12,2,1,1,23,1,0,1,-1,-1,-1,-0,0,0,0,1,0.449455178820244
12,2,1,1,24,1,0,1,-1,-1,-1,-1,0,0,0,0,0.605021268632981
12,2,1,1,25,1,0,1,-1,-1,-1,-1,0,0,0,0,0.537164291418776
12,2,1,1,26,1,0,1,-1,-1,-1,-1,0,0,0,0,0.502331049530994
12,2,1,1,27,1,0,1,-1,-1,-1,-1,0,0,0,0,0.577974203637496
12,2,1,1,28,1,0,1,-1,-1,-1,-1,0,0,0,0,0.605168410482975
12,2,1,1,29,1,0,1,-1,-1,-1,-1,0,0,0,0,0.542373023086384
12,2,1,1,30,1,0,1,-1,-1,-1,-1,0,0,0,0,0.488389285153517
12,2,1,1,31,1,0,1,-1,-1,-1,-1,0,0,0,0,0.470172117206403
12,2,1,1,32,0,0,1,-1,-1,-1,-1,0,0,0,0,0.481226757377044
12,2,1,1,33,1,0,1,-0,-1,-1,-1,1,0,0,0,0.487160886432321
12,2,1,1,34,1,0,1,-1,-0,-1,-1,0,1,0,0,0.540148833650164
12,2,1,1,35,1,0,1,-1,-1,-0,-1,0,0,1,0,0.440361930984636
12,2,1,1,36,1,0,1,-1,-1,-1,-0,0,0,0,1,0.472247317612982
12,2,1,1,37,1,0,1,-1,-1,-1,-1,0,0,0,0,0.433865247421181
