sub_idx,Cond,Order,Group,Trial_idx,Outcome,Choice_t,Correct,winstay_t1,winstay_t2,winstay_t3,winstay_t4,loseshift_t1,loseshift_t2,loseshift_t3,loseshift_t4,RT
1,2,1,1,1,0,1,0,NaN,NaN,NaN,NaN,NaN,NaN,NaN,NaN,1.14187822791905
1,2,1,1,2,0,1,0,0,NaN,NaN,NaN,-1,NaN,NaN,NaN,0.579900136000333
1,2,1,1,3,0,0,1,0,0,NaN,NaN,-1,-1,NaN,NaN,1.05174701601277
1,2,1,1,4,0,1,0,-0,0,0,NaN,1,-1,-1,NaN,0.434743007177531
1,2,1,1,5,0,1,0,0,-0,0,0,-1,1,-1,-1,0.634616793867735
1,2,1,1,6,0,1,0,0,0,-0,0,-1,-1,1,-1,0.625276454234381
1,2,1,1,7,0,1,0,0,0,0,-0,-1,-1,-1,1,0.559192959059374
1,2,1,1,8,1,0,1,0,0,0,0,-1,-1,-1,-1,0.795415898003284
1,2,1,1,9,0,0,1,-1,0,0,0,0,-1,-1,-1,0.807961220861898
1,2,1,1,10,1,0,1,-0,-1,0,0,1,0,-1,-1,0.651396628060866
1,2,1,1,11,1,0,1,-1,-0,-1,0,0,1,0,-1,0.87223882023909
1,2,1,1,12,1,0,1,-1,-1,-0,-1,0,0,1,0,0.766982954849254
1,2,1,1,13,1,0,1,-1,-1,-1,-0,0,0,0,1,0.567871550871359
1,2,1,1,14,1,0,1,-1,-1,-1,-1,0,0,0,0,0.593903428076828
1,2,1,1,15,1,0,1,-1,-1,-1,-1,0,0,0,0,0.738914393311688
1,2,1,1,16,1,0,1,-1,-1,-1,-1,0,0,0,0,0.785343689852652
1,2,1,1,17,1,0,1,-1,-1,-1,-1,0,0,0,0,0.520135505774306
1,2,1,1,18,1,0,1,-1,-1,-1,-1,0,0,0,0,0.677675832041132
1,2,1,1,19,1,0,1,-1,-1,-1,-1,0,0,0,0,0.769853384302678
1,2,1,1,20,0,0,1,-1,-1,-1,-1,0,0,0,0,0.802454563529182
1,2,1,1,21,1,0,1,-0,-1,-1,-1,1,0,0,0,0.753604826173614
1,2,1,1,22,0,0,1,-1,-0,-1,-1,0,1,0,0,0.65464042617873
1,2,1,1,23,0,0,1,-0,-1,-0,-1,1,0,1,0,0.526221226074767
1,2,1,1,24,0,0,1,-0,-0,-1,-0,1,1,0,1,0.565798853186607
1,2,1,1,25,0,1,0,-0,-0,-0,-1,1,1,1,0,0.475458994399787
1,2,1,1,26,0,0,1,0,-0,-0,-0,-1,1,1,1,0.571873789697293
1,2,1,1,27,0,1,0,-0,0,-0,-0,1,-1,1,1,0.546643847238556
1,2,1,1,28,1,0,1,0,-0,0,-0,-1,1,-1,1,0.822585496418014
1,2,1,1,29,1,0,1,-1,0,-0,0,0,-1,1,-1,0.815866948580606
1,2,1,1,30,1,0,1,-1,-1,0,-0,0,0,-1,1,0.618325633888617
1,2,1,1,31,1,0,1,-1,-1,-1,0,0,0,0,-1,0.752938734695817
1,2,1,1,32,1,0,1,-1,-1,-1,-1,0,0,0,0,0.664509698794518
1,2,1,1,33,1,0,1,-1,-1,-1,-1,0,0,0,0,0.659618198313183
1,2,1,1,34,1,0,1,-1,-1,-1,-1,0,0,0,0,0.650352895102742
1,2,1,1,35,1,0,1,-1,-1,-1,-1,0,0,0,0,0.780064941656747
1,2,1,1,36,0,0,1,-1,-1,-1,-1,0,0,0,0,0.513825575411829
1,2,1,1,37,1,0,1,-0,-1,-1,-1,1,0,0,0,0.694812215969705
1,2,1,1,38,1,0,1,-1,-0,-1,-1,0,1,0,0,0.530459897281389
1,2,1,1,39,1,0,1,-1,-1,-0,-1,0,0,1,0,0.565034608239102
1,2,1,1,40,1,0,1,-1,-1,-1,-0,0,0,0,1,0.540895216263834
1,2,1,1,41,1,0,1,-1,-1,-1,-1,0,0,0,0,0.636604390437924
1,2,1,1,42,1,0,1,-1,-1,-1,-1,0,0,0,0,0.647234867875795
1,2,1,1,43,1,0,1,-1,-1,-1,-1,0,0,0,0,0.626982286542898
1,2,1,1,44,1,0,1,-1,-1,-1,-1,0,0,0,0,0.603088083431203
1,2,1,1,45,1,0,1,-1,-1,-1,-1,0,0,0,0,0.631164692378661
1,2,1,1,46,1,0,1,-1,-1,-1,-1,0,0,0,0,0.64531671701252
1,2,1,1,47,1,0,1,-1,-1,-1,-1,0,0,0,0,0.608453278710385
1,2,1,1,48,1,0,1,-1,-1,-1,-1,0,0,0,0,0.674030767148906
1,2,1,1,49,1,0,1,-1,-1,-1,-1,0,0,0,0,0.620583636187575
1,2,1,1,50,1,0,1,-1,-1,-1,-1,0,0,0,0,0.598755855365198
1,2,1,1,51,1,0,1,-1,-1,-1,-1,0,0,0,0,0.553388293279568
1,2,1,1,52,1,0,1,-1,-1,-1,-1,0,0,0,0,0.500073710168635
1,2,1,1,53,1,0,1,-1,-1,-1,-1,0,0,0,0,0.479976429841372
1,2,1,1,54,1,0,1,-1,-1,-1,-1,0,0,0,0,0.535097630186101
1,2,1,1,55,1,0,1,-1,-1,-1,-1,0,0,0,0,0.452624526170894
1,2,1,1,56,0,0,0,-1,-1,-1,-1,0,0,0,0,0.528904381415941
1,2,1,1,57,1,1,1,-0,-1,-1,-1,1,0,0,0,0.649920594525611
1,2,1,1,58,1,1,1,1,-0,-1,-1,-0,1,0,0,0.602180785193013
1,2,1,1,59,1,1,1,1,1,-0,-1,-0,-0,1,0,0.611651124090713
1,2,1,1,60,1,1,1,1,1,1,-0,-0,-0,-0,1,0.603658553317473
1,2,1,1,61,1,1,1,1,1,1,1,-0,-0,-0,-0,0.484285245803221
1,2,1,1,62,1,1,1,1,1,1,1,-0,-0,-0,-0,0.610962687459505
1,2,1,1,63,1,1,1,1,1,1,1,-0,-0,-0,-0,0.611567824730173
1,2,1,1,64,1,1,1,1,1,1,1,-0,-0,-0,-0,0.609883785888087
1,2,1,1,65,1,1,1,1,1,1,1,-0,-0,-0,-0,0.543694553972728
1,2,1,1,66,0,1,1,1,1,1,1,-0,-0,-0,-0,0.690403472519392
1,2,1,1,67,0,0,0,0,1,1,1,-1,-0,-0,-0,0.464881083257751
1,2,1,1,68,0,0,0,-0,0,1,1,1,-1,-0,-0,1.17986307741648
1,2,1,1,69,1,0,0,-0,-0,0,1,1,1,-1,-0,0.567960503768973
1,2,1,1,70,0,0,0,-1,-0,-0,0,0,1,1,-1,0.575782807153701
1,2,1,1,71,0,1,0,-0,-1,-0,-0,1,0,1,1,0.62706612221973
1,2,1,1,72,1,0,1,0,-0,-1,-0,-1,1,0,1,0.542977945894108
1,2,1,1,73,0,1,0,-1,0,-0,-1,0,-1,1,0,0.470223063916819
1,2,1,1,74,1,0,1,0,-1,0,-0,-1,0,-1,1,0.528995808048876
1,2,1,1,75,1,0,1,-1,0,-1,0,0,-1,0,-1,0.825985673185187
1,2,1,1,76,1,0,1,-1,-1,0,-1,0,0,-1,0,0.540298557461028
1,2,1,1,77,0,1,0,-1,-1,-1,0,0,0,0,-1,0.686409000080403
1,2,1,1,78,0,1,0,0,-1,-1,-1,-1,0,0,0,0.477072049427989
1,2,1,1,79,1,0,1,0,0,-1,-1,-1,-1,0,0,0.592150665298504
1,2,1,1,80,1,0,1,-1,0,0,-1,0,-1,-1,0,0.807211566376282
1,2,1,1,81,1,1,0,-1,-1,0,0,0,0,-1,-1,0.745070526357722
1,2,1,1,82,1,0,1,1,-1,-1,0,-0,0,0,-1,0.552605620789564
1,2,1,1,83,0,1,0,-1,1,-1,-1,0,-0,0,0,0.935306744212539
1,2,1,1,84,1,0,1,0,-1,1,-1,-1,0,-0,0,0.667789545351297
1,2,1,1,85,0,1,0,-1,0,-1,1,0,-1,0,-0,0.769487524393298
1,2,1,1,86,0,1,0,0,-1,0,-1,-1,0,-1,0,0.492411657266075
1,2,1,1,87,1,0,1,0,0,-1,0,-1,-1,0,-1,0.570947141320175
1,2,1,1,88,1,0,1,-1,0,0,-1,0,-1,-1,0,0.54850854195638
1,2,1,1,89,0,0,1,-1,-1,0,0,0,0,-1,-1,0.682584056218275
1,2,1,1,90,0,1,0,-0,-1,-1,0,1,0,0,-1,0.418360074382235
1,2,1,1,91,1,1,1,0,-0,-1,-1,-1,1,0,0,0.529270652333707
1,2,1,1,92,0,1,1,1,0,-0,-1,-0,-1,1,0,0.641238055696704
1,2,1,1,93,0,0,0,0,1,0,-0,-1,-0,-1,1,0.35360015404467
1,2,1,1,94,1,1,1,-0,0,1,0,1,-1,-0,-1,0.870260265852266
1,2,1,1,95,0,0,0,1,-0,0,1,-0,1,-1,-0,0.579617607864748
1,2,1,1,96,1,1,1,-0,1,-0,0,1,-0,1,-1,0.588054360698152
1,2,1,1,97,0,1,1,1,-0,1,-0,-0,1,-0,1,0.528667444797975
1,2,1,1,98,0,0,0,0,1,-0,1,-1,-0,1,-0,0.480184492621902
1,2,1,1,99,0,0,0,-0,0,1,-0,1,-1,-0,1,0.524505790205239
1,2,1,1,100,0,0,0,-0,-0,0,1,1,1,-1,-0,0.588211997433973
1,2,1,1,101,1,1,1,-0,-0,-0,0,1,1,1,-1,0.52616827115844
1,2,1,1,102,1,0,0,1,-0,-0,-0,-0,1,1,1,1.00909626684097
1,2,1,1,103,0,1,1,-1,1,-0,-0,0,-0,1,1,1.00629697190425
1,2,1,1,104,0,1,1,0,-1,1,-0,-1,0,-0,1,0.428700349858445
1,2,1,1,105,1,1,1,0,0,-1,1,-1,-1,0,-0,0.628576522735784
1,2,1,1,106,0,1,0,1,0,0,-1,-0,-1,-1,0,0.693440528095834
1,2,1,1,107,0,1,0,0,1,0,0,-1,-0,-1,-1,0.67445292784987
1,2,1,1,108,0,1,0,0,0,1,0,-1,-1,-0,-1,0.703387651705725
1,2,1,1,109,1,0,1,0,0,0,1,-1,-1,-1,-0,0.944461170404793
1,2,1,1,110,0,0,0,-1,0,0,0,0,-1,-1,-1,0
1,2,1,1,111,0,1,0,NaN,-1,0,0,NaN,0,-1,-1,0.614992248315957
1,2,1,1,112,1,0,1,0,NaN,-1,0,-1,NaN,0,-1,0.392571654124822
1,2,1,1,113,0,1,0,-1,0,NaN,-1,0,-1,NaN,0,1.05626730345102
1,2,1,1,114,1,1,0,0,-1,0,NaN,-1,0,-1,NaN,0.393509597880438
1,2,1,1,115,1,1,0,1,0,-1,0,-0,-1,0,-1,0.846987961465402
1,2,1,1,116,0,1,0,1,1,0,-1,-0,-0,-1,0,0.744249722652512
1,2,1,1,117,0,1,0,0,1,1,0,-1,-0,-0,-1,0.503079809800056
1,2,1,1,118,1,0,1,0,0,1,1,-1,-1,-0,-0,0.488084288454047
1,2,1,1,119,0,1,0,-1,0,0,1,0,-1,-1,-0,0.691090279819946
1,2,1,1,120,1,1,0,0,-1,0,0,-1,0,-1,-1,0.539705229162337
1,2,1,1,121,1,1,0,1,0,-1,0,-0,-1,0,-1,0.999832840903309
1,2,1,1,122,1,0,1,1,1,0,-1,-0,-0,-1,0,0.678979605967015
1,2,1,1,123,0,1,0,-1,1,1,0,0,-0,-0,-1,1.4200943070332
1,2,1,1,124,0,1,0,0,-1,1,1,-1,0,-0,-0,0.662299879704733
1,2,1,1,125,1,1,0,0,0,-1,1,-1,-1,0,-0,0.704240308557019
1,2,1,1,126,1,1,1,1,0,0,-1,-0,-1,-1,0,0.829672961665892
1,2,1,1,127,0,1,1,1,1,0,0,-0,-0,-1,-1,0.619413467707545
1,2,1,1,128,0,1,1,0,1,1,0,-1,-0,-0,-1,0.664520981474652
1,2,1,1,129,1,1,1,0,0,1,1,-1,-1,-0,-0,0.562708063114769
1,2,1,1,130,1,1,1,1,0,0,1,-0,-1,-1,-0,0.729341768471841
1,2,1,1,131,1,1,1,1,1,0,0,-0,-0,-1,-1,0.71835074649789
1,2,1,1,132,1,1,1,1,1,1,0,-0,-0,-0,-1,0.526391363478069
1,2,1,1,133,1,1,1,1,1,1,1,-0,-0,-0,-0,0.823083082161702
1,2,1,1,134,1,1,1,1,1,1,1,-0,-0,-0,-0,0.540897536957345
1,2,1,1,135,1,1,1,1,1,1,1,-0,-0,-0,-0,0.802676422823879
1,2,1,1,136,1,1,1,1,1,1,1,-0,-0,-0,-0,0.758927787839184
1,2,1,1,137,0,1,1,1,1,1,1,-0,-0,-0,-0,0.671110633086755
1,2,1,1,138,0,0,0,0,1,1,1,-1,-0,-0,-0,0.676860025930637
1,2,1,1,139,0,0,0,-0,0,1,1,1,-1,-0,-0,0.672121340355261
1,2,1,1,140,0,0,0,-0,-0,0,1,1,1,-1,-0,0.480218679159407
1,2,1,1,141,1,1,1,-0,-0,-0,0,1,1,1,-1,0.66304480759436
1,2,1,1,142,0,1,1,1,-0,-0,-0,-0,1,1,1,0.977964049134243
1,2,1,1,143,1,1,1,0,1,-0,-0,-1,-0,1,1,0.916810331346369
1,2,1,1,144,1,1,1,1,0,1,-0,-0,-1,-0,1,0.730261700371557
1,2,1,1,145,1,1,1,1,1,0,1,-0,-0,-1,-0,0.833923028830668
1,2,1,1,146,0,1,1,1,1,1,0,-0,-0,-0,-1,0.921883264609278
1,2,1,1,147,1,1,1,0,1,1,1,-1,-0,-0,-0,0.835196041622112
1,2,1,1,148,1,0,0,1,0,1,1,-0,-1,-0,-0,1.06608554086051
1,2,1,1,149,0,0,0,-1,1,0,1,0,-0,-1,-0,0
1,2,1,1,150,0,0,0,NaN,-1,1,0,NaN,0,-0,-1,0.603920713818297
1,2,1,1,151,1,1,1,-0,NaN,-1,1,1,NaN,0,-0,0.585089855445403
1,2,1,1,152,1,1,1,1,-0,NaN,-1,-0,1,NaN,0,0.691194422650369
1,2,1,1,153,1,1,1,1,1,-0,NaN,-0,-0,1,NaN,0.77040727317717
1,2,1,1,154,1,1,1,1,1,1,-0,-0,-0,-0,1,0.453869400596432
1,2,1,1,155,1,1,1,1,1,1,1,-0,-0,-0,-0,0.524407230739598
1,2,1,1,156,0,1,1,1,1,1,1,-0,-0,-0,-0,1.06261077343106
1,2,1,1,157,1,1,1,0,1,1,1,-1,-0,-0,-0,0.49007891961628
1,2,1,1,158,0,1,1,1,0,1,1,-0,-1,-0,-0,0.580665969511756
1,2,1,1,159,0,0,0,0,1,0,1,-1,-0,-1,-0,0.438533744452798
1,2,1,1,160,0,0,0,-0,0,1,0,1,-1,-0,-1,0.611622847051422
2,2,1,1,1,0,1,0,NaN,NaN,NaN,NaN,NaN,NaN,NaN,NaN,0.728309560358866
2,2,1,1,2,0,1,0,0,NaN,NaN,NaN,-1,NaN,NaN,NaN,1.02008283739906
2,2,1,1,3,1,0,1,0,0,NaN,NaN,-1,-1,NaN,NaN,0.67320475595352
2,2,1,1,4,1,0,1,-1,0,0,NaN,0,-1,-1,NaN,0.577033665589624
2,2,1,1,5,1,0,1,-1,-1,0,0,0,0,-1,-1,0.557926447620048
2,2,1,1,6,1,1,0,-1,-1,-1,0,0,0,0,-1,0.734061647292037
2,2,1,1,7,0,1,0,1,-1,-1,-1,-0,0,0,0,0.497162689171091
2,2,1,1,8,0,0,1,0,1,-1,-1,-1,-0,0,0,0.991066250205222
2,2,1,1,9,1,0,1,-0,0,1,-1,1,-1,-0,0,0.718028946726918
2,2,1,1,10,1,0,1,-1,-0,0,1,0,1,-1,-0,0.667051270938828
2,2,1,1,11,0,1,0,-1,-1,-0,0,0,0,1,-1,1.19931472297321
2,2,1,1,12,1,0,1,0,-1,-1,-0,-1,0,0,1,0.941490991322098
2,2,1,1,13,1,0,1,-1,0,-1,-1,0,-1,0,0,1.03101492045607
2,2,1,1,14,0,0,1,-1,-1,0,-1,0,0,-1,0,0.812139720717823
2,2,1,1,15,1,0,1,-0,-1,-1,0,1,0,0,-1,0.518082643592606
2,2,1,1,16,0,1,0,-1,-0,-1,-1,0,1,0,0,0.899016241350182
2,2,1,1,17,0,1,0,0,-1,-0,-1,-1,0,1,0,0.873012310077684
2,2,1,1,18,0,0,1,0,0,-1,-0,-1,-1,0,1,0.690599249165643
2,2,1,1,19,1,0,1,-0,0,0,-1,1,-1,-1,0,0.806024792243079
2,2,1,1,20,0,0,1,-1,-0,0,0,0,1,-1,-1,0.862002329023198
2,2,1,1,21,0,1,0,-0,-1,-0,0,1,0,1,-1,0.511809318434644
2,2,1,1,22,0,0,0,0,-0,-1,-0,-1,1,0,1,0
2,2,1,1,23,0,1,0,NaN,0,-0,-1,NaN,-1,1,0,0.694222328890646
2,2,1,1,24,1,0,1,0,NaN,0,-0,-1,NaN,-1,1,0.652273870156023
2,2,1,1,25,0,0,1,-1,0,NaN,0,0,-1,NaN,-1,0.408944415187761
2,2,1,1,26,0,1,0,-0,-1,0,NaN,1,0,-1,NaN,0.531057199757925
2,2,1,1,27,0,1,0,0,-0,-1,0,-1,1,0,-1,1.12361039707048
2,2,1,1,28,1,0,1,0,0,-0,-1,-1,-1,1,0,1.08895063672207
2,2,1,1,29,0,0,1,-1,0,0,-0,0,-1,-1,1,0.784195430836007
2,2,1,1,30,0,0,1,-0,-1,0,0,1,0,-1,-1,1.14653241586893
2,2,1,1,31,0,0,1,-0,-0,-1,0,1,1,0,-1,0.699139744107924
2,2,1,1,32,0,1,0,-0,-0,-0,-1,1,1,1,0,0.759111778111219
2,2,1,1,33,1,0,1,0,-0,-0,-0,-1,1,1,1,1.25207680098356
2,2,1,1,34,1,0,1,-1,0,-0,-0,0,-1,1,1,0.548988564392857
2,2,1,1,35,1,0,1,-1,-1,0,-0,0,0,-1,1,0.572634368974832
2,2,1,1,36,1,0,1,-1,-1,-1,0,0,0,0,-1,0.494738297908043
2,2,1,1,37,1,0,1,-1,-1,-1,-1,0,0,0,0,0.526106007345334
2,2,1,1,38,0,0,1,-1,-1,-1,-1,0,0,0,0,0.497143612560649
2,2,1,1,39,0,1,0,-0,-1,-1,-1,1,0,0,0,0.6361024078833
2,2,1,1,40,0,1,0,0,-0,-1,-1,-1,1,0,0,0.302536865741786
2,2,1,1,41,0,1,0,0,0,-0,-1,-1,-1,1,0,0.603624813962597
2,2,1,1,42,0,0,0,0,0,0,-0,-1,-1,-1,1,0
2,2,1,1,43,1,0,1,NaN,0,0,0,NaN,-1,-1,-1,0.618708092439192
2,2,1,1,44,0,0,1,-1,NaN,0,0,0,NaN,-1,-1,0.41220435764717
2,2,1,1,45,1,1,0,-0,-1,NaN,0,1,0,NaN,-1,0.512221347492414
2,2,1,1,46,1,1,0,1,-0,-1,NaN,-0,1,0,NaN,0.884242278634702
2,2,1,1,47,0,1,0,1,1,-0,-1,-0,-0,1,0,0.941005670521008
2,2,1,1,48,0,1,0,0,1,1,-0,-1,-0,-0,1,0.413962230049037
2,2,1,1,49,0,1,0,0,0,1,1,-1,-1,-0,-0,0.451979734819361
2,2,1,1,50,1,0,1,0,0,0,1,-1,-1,-1,-0,0.775565229377207
2,2,1,1,51,0,0,1,-1,0,0,0,0,-1,-1,-1,0.551003785917601
2,2,1,1,52,1,0,1,-0,-1,0,0,1,0,-1,-1,0.718191957349518
2,2,1,1,53,1,0,1,-1,-0,-1,0,0,1,0,-1,0.405720204699719
2,2,1,1,54,1,0,1,-1,-1,-0,-1,0,0,1,0,0.452344132497274
2,2,1,1,55,1,0,1,-1,-1,-1,-0,0,0,0,1,0.512431921995812
2,2,1,1,56,0,0,0,-1,-1,-1,-1,0,0,0,0,0.467826280545523
2,2,1,1,57,0,0,0,-0,-1,-1,-1,1,0,0,0,0.478150676486621
2,2,1,1,58,1,0,0,-0,-0,-1,-1,1,1,0,0,0.648224458426739
2,2,1,1,59,0,0,0,-1,-0,-0,-1,0,1,1,0,1.35389407452203
2,2,1,1,60,0,0,0,-0,-1,-0,-0,1,0,1,1,0
2,2,1,1,61,0,0,0,NaN,-0,-1,-0,NaN,1,0,1,0.345416116711021
2,2,1,1,62,1,1,1,-0,NaN,-0,-1,1,NaN,1,0,0.425331333893155
2,2,1,1,63,1,1,1,1,-0,NaN,-0,-0,1,NaN,1,0.5142633417654
2,2,1,1,64,1,1,1,1,1,-0,NaN,-0,-0,1,NaN,0.500230206805099
2,2,1,1,65,1,1,1,1,1,1,-0,-0,-0,-0,1,0.449932605332833
2,2,1,1,66,1,1,1,1,1,1,1,-0,-0,-0,-0,0.422417271199265
2,2,1,1,67,0,1,1,1,1,1,1,-0,-0,-0,-0,0.492739687302674
2,2,1,1,68,0,0,0,0,1,1,1,-1,-0,-0,-0,0.455025935035337
2,2,1,1,69,0,1,1,-0,0,1,1,1,-1,-0,-0,1.08131838625741
2,2,1,1,70,0,0,0,0,-0,0,1,-1,1,-1,-0,0.451725874218937
2,2,1,1,71,1,0,1,-0,0,-0,0,1,-1,1,-1,1.20015786571821
2,2,1,1,72,0,1,0,-1,-0,0,-0,0,1,-1,1,0.324611636765439
2,2,1,1,73,1,0,1,0,-1,-0,0,-1,0,1,-1,0.562685465486538
2,2,1,1,74,1,0,1,-1,0,-1,-0,0,-1,0,1,0.49156359137487
2,2,1,1,75,0,0,1,-1,-1,0,-1,0,0,-1,0,0.486720440275349
2,2,1,1,76,1,0,1,-0,-1,-1,0,1,0,0,-1,0.656818065473999
2,2,1,1,77,1,1,0,-1,-0,-1,-1,0,1,0,0,0.457015193121151
2,2,1,1,78,0,1,0,1,-1,-0,-1,-0,0,1,0,0.473890091457179
2,2,1,1,79,1,1,0,0,1,-1,-0,-1,-0,0,1,0.505272228478134
2,2,1,1,80,1,0,1,1,0,1,-1,-0,-1,-0,0,0.677203887498763
2,2,1,1,81,0,0,1,-1,1,0,1,0,-0,-1,-0,0.468716523371768
2,2,1,1,82,0,1,0,-0,-1,1,0,1,0,-0,-1,0.452445409950997
2,2,1,1,83,1,0,1,0,-0,-1,1,-1,1,0,-0,0.491294979733539
2,2,1,1,84,1,0,1,-1,0,-0,-1,0,-1,1,0,0.475007915006245
2,2,1,1,85,0,0,1,-1,-1,0,-0,0,0,-1,1,0.476056454604077
2,2,1,1,86,1,0,1,-0,-1,-1,0,1,0,0,-1,0.915391987756266
2,2,1,1,87,0,1,0,-1,-0,-1,-1,0,1,0,0,0.671629855613901
2,2,1,1,88,1,1,0,0,-1,-0,-1,-1,0,1,0,0.6404906671969
2,2,1,1,89,1,0,1,1,0,-1,-0,-0,-1,0,1,0.942643615232555
2,2,1,1,90,0,0,1,-1,1,0,-1,0,-0,-1,0,0.468213551777808
2,2,1,1,91,0,0,0,-0,-1,1,0,1,0,-0,-1,1.45722821928302
2,2,1,1,92,1,1,1,-0,-0,-1,1,1,1,0,-0,0.496511513129917
2,2,1,1,93,0,1,1,1,-0,-0,-1,-0,1,1,0,0.50644940705115
2,2,1,1,94,0,0,0,0,1,-0,-0,-1,-0,1,1,0.468949061206331
2,2,1,1,95,0,0,0,-0,0,1,-0,1,-1,-0,1,0.459162426863259
2,2,1,1,96,1,1,1,-0,-0,0,1,1,1,-1,-0,0.677985421713856
2,2,1,1,97,1,1,1,1,-0,-0,0,-0,1,1,-1,1.15695027517177
2,2,1,1,98,1,1,1,1,1,-0,-0,-0,-0,1,1,0.761381441321646
2,2,1,1,99,1,1,1,1,1,1,-0,-0,-0,-0,1,0.557523403181222
2,2,1,1,100,1,1,1,1,1,1,1,-0,-0,-0,-0,0.654934884233626
2,2,1,1,101,1,1,1,1,1,1,1,-0,-0,-0,-0,0.343718426354826
2,2,1,1,102,1,1,1,1,1,1,1,-0,-0,-0,-0,0.527299079751174
2,2,1,1,103,1,1,1,1,1,1,1,-0,-0,-0,-0,0.56250838782762
2,2,1,1,104,1,1,1,1,1,1,1,-0,-0,-0,-0,0.467983715210721
2,2,1,1,105,0,0,0,1,1,1,1,-0,-0,-0,-0,1.09671843370688
2,2,1,1,106,1,0,1,-0,1,1,1,1,-0,-0,-0,0.423654922861715
2,2,1,1,107,1,0,1,-1,-0,1,1,0,1,-0,-0,0.49296415308072
2,2,1,1,108,1,0,1,-1,-1,-0,1,0,0,1,-0,0.970076279710156
2,2,1,1,109,1,0,1,-1,-1,-1,-0,0,0,0,1,0.707125906966212
2,2,1,1,110,1,0,1,-1,-1,-1,-1,0,0,0,0,0.506113501654909
2,2,1,1,111,1,0,1,-1,-1,-1,-1,0,0,0,0,1.36512360968663
2,2,1,1,112,1,0,1,-1,-1,-1,-1,0,0,0,0,0.532669491791239
2,2,1,1,113,0,0,1,-1,-1,-1,-1,0,0,0,0,1.14104335693537
2,2,1,1,114,0,1,0,-0,-1,-1,-1,1,0,0,0,0.403498864559879
2,2,1,1,115,1,0,1,0,-0,-1,-1,-1,1,0,0,0.447425938042215
2,2,1,1,116,1,0,1,-1,0,-0,-1,0,-1,1,0,0.99035246886524
2,2,1,1,117,1,0,1,-1,-1,0,-0,0,0,-1,1,0.481945149983403
2,2,1,1,118,1,0,1,-1,-1,-1,0,0,0,0,-1,0.64984248179735
2,2,1,1,119,1,1,0,-1,-1,-1,-1,0,0,0,0,0.686175954248938
2,2,1,1,120,0,1,0,1,-1,-1,-1,-0,0,0,0,0.628276125667071
2,2,1,1,121,1,0,1,0,1,-1,-1,-1,-0,0,0,0.741418096548841
2,2,1,1,122,0,1,0,-1,0,1,-1,0,-1,-0,0,0.706483833165294
2,2,1,1,123,1,0,1,0,-1,0,1,-1,0,-1,-0,0.477924771859762
2,2,1,1,124,0,0,1,-1,0,-1,0,0,-1,0,-1,0.492007195247425
2,2,1,1,125,1,0,1,-0,-1,0,-1,1,0,-1,0,1.213998395413
2,2,1,1,126,0,0,0,-1,-0,-1,0,0,1,0,-1,0.865211500098667
2,2,1,1,127,0,0,0,-0,-1,-0,-1,1,0,1,0,0.986628913311506
2,2,1,1,128,0,0,0,-0,-0,-1,-0,1,1,0,1,0.815527412978554
2,2,1,1,129,1,1,1,-0,-0,-0,-1,1,1,1,0,0.472806899858369
2,2,1,1,130,0,1,1,1,-0,-0,-0,-0,1,1,1,0.455431733869773
2,2,1,1,131,1,1,1,0,1,-0,-0,-1,-0,1,1,0.528353100074128
2,2,1,1,132,1,0,0,1,0,1,-0,-0,-1,-0,1,0.486365417837987
2,2,1,1,133,0,0,0,-1,1,0,1,0,-0,-1,-0,0.486140194875588
2,2,1,1,134,1,0,0,-0,-1,1,0,1,0,-0,-1,1.2206173527311
2,2,1,1,135,0,0,0,-1,-0,-1,1,0,1,0,-0,1.17238961629573
2,2,1,1,136,1,0,0,-0,-1,-0,-1,1,0,1,0,0.465131253362415
2,2,1,1,137,1,1,1,-1,-0,-1,-0,0,1,0,1,0.413681191043906
2,2,1,1,138,1,0,0,1,-1,-0,-1,-0,0,1,0,0.544301913341769
2,2,1,1,139,1,1,1,-1,1,-1,-0,0,-0,0,1,0.487423886696888
2,2,1,1,140,0,0,0,1,-1,1,-1,-0,0,-0,0,0.459589943762694
2,2,1,1,141,1,1,1,-0,1,-1,1,1,-0,0,-0,0.457857368170153
2,2,1,1,142,1,1,1,1,-0,1,-1,-0,1,-0,0,0.616513357637814
2,2,1,1,143,1,1,1,1,1,-0,1,-0,-0,1,-0,0.465471163876828
2,2,1,1,144,1,1,1,1,1,1,-0,-0,-0,-0,1,0.627005816545534
2,2,1,1,145,0,1,1,1,1,1,1,-0,-0,-0,-0,0.630993001233037
2,2,1,1,146,1,0,0,0,1,1,1,-1,-0,-0,-0,0.535545415966226
2,2,1,1,147,0,0,0,-1,0,1,1,0,-1,-0,-0,0.722812271315888
2,2,1,1,148,0,0,0,-0,-1,0,1,1,0,-1,-0,0.843827955638517
2,2,1,1,149,1,1,1,-0,-0,-1,0,1,1,0,-1,0.674865749648234
2,2,1,1,150,1,1,1,1,-0,-0,-1,-0,1,1,0,0.476337483584757
2,2,1,1,151,0,1,1,1,1,-0,-0,-0,-0,1,1,0.447589001460983
2,2,1,1,152,0,0,0,0,1,1,-0,-1,-0,-0,1,0.858093626427035
2,2,1,1,153,1,0,0,-0,0,1,1,1,-1,-0,-0,0.597749436122285
2,2,1,1,154,1,0,0,-1,-0,0,1,0,1,-1,-0,0.499250801124617
2,2,1,1,155,1,0,0,-1,-1,-0,0,0,0,1,-1,0.435376086571523
2,2,1,1,156,1,0,0,-1,-1,-1,-0,0,0,0,1,0.430842301356279
2,2,1,1,157,0,0,0,-1,-1,-1,-1,0,0,0,0,0.765494372918511
2,2,1,1,158,0,0,0,-0,-1,-1,-1,1,0,0,0,0.557176966387487
2,2,1,1,159,1,1,1,-0,-0,-1,-1,1,1,0,0,0.729367229598211
2,2,1,1,160,1,1,1,1,-0,-0,-1,-0,1,1,0,0.599534006421891
3,2,1,1,1,0,0,0,NaN,NaN,NaN,NaN,NaN,NaN,NaN,NaN,0
3,2,1,1,2,0,0,0,NaN,NaN,NaN,NaN,NaN,NaN,NaN,NaN,0.439773398002217
3,2,1,1,3,0,0,0,-0,NaN,NaN,NaN,1,NaN,NaN,NaN,0.570631595865962
3,2,1,1,4,0,0,0,-0,-0,NaN,NaN,1,1,NaN,NaN,1.0189598311872
3,2,1,1,5,1,0,0,-0,-0,-0,NaN,1,1,1,NaN,0.665091622865475
3,2,1,1,6,0,0,0,-1,-0,-0,-0,0,1,1,1,0
3,2,1,1,7,0,0,0,NaN,-1,-0,-0,NaN,0,1,1,0.300313979823841
3,2,1,1,8,0,0,0,-0,NaN,-1,-0,1,NaN,0,1,0.362922821427674
3,2,1,1,9,1,1,1,-0,-0,NaN,-1,1,1,NaN,0,1.12182877163195
3,2,1,1,10,0,0,0,1,-0,-0,NaN,-0,1,1,NaN,0.981825920665869
3,2,1,1,11,1,1,1,-0,1,-0,-0,1,-0,1,1,0.957954173697544
3,2,1,1,12,1,1,1,1,-0,1,-0,-0,1,-0,1,0.639138230409117
3,2,1,1,13,1,1,1,1,1,-0,1,-0,-0,1,-0,1.0208158383648
3,2,1,1,14,1,1,1,1,1,1,-0,-0,-0,-0,1,0.866813196243129
3,2,1,1,15,1,1,1,1,1,1,1,-0,-0,-0,-0,0.841944987251736
3,2,1,1,16,0,1,1,1,1,1,1,-0,-0,-0,-0,1.25058993306993
3,2,1,1,17,1,0,0,0,1,1,1,-1,-0,-0,-0,1.01769083293493
3,2,1,1,18,0,0,0,-1,0,1,1,0,-1,-0,-0,0.940305707611515
3,2,1,1,19,0,0,0,-0,-1,0,1,1,0,-1,-0,0.773832220057557
3,2,1,1,20,1,1,1,-0,-0,-1,0,1,1,0,-1,0.491948331088679
3,2,1,1,21,1,1,1,1,-0,-0,-1,-0,1,1,0,0.71075531214592
3,2,1,1,22,1,1,1,1,1,-0,-0,-0,-0,1,1,0.909356059973106
3,2,1,1,23,1,1,1,1,1,1,-0,-0,-0,-0,1,0.764253493369324
3,2,1,1,24,0,1,1,1,1,1,1,-0,-0,-0,-0,0.720808465350274
3,2,1,1,25,1,1,1,0,1,1,1,-1,-0,-0,-0,0.775247385445255
3,2,1,1,26,0,1,1,1,0,1,1,-0,-1,-0,-0,0.790238636401227
3,2,1,1,27,0,1,1,0,1,0,1,-1,-0,-1,-0,1.14357726044
3,2,1,1,28,0,0,0,0,0,1,0,-1,-1,-0,-1,0.688917342039531
3,2,1,1,29,1,1,1,-0,0,0,1,1,-1,-1,-0,0.867668548487018
3,2,1,1,30,1,1,1,1,-0,0,0,-0,1,-1,-1,0.667735207022815
3,2,1,1,31,1,1,1,1,1,-0,0,-0,-0,1,-1,0.6141475348104
3,2,1,1,32,1,1,1,1,1,1,-0,-0,-0,-0,1,0.553221604787723
3,2,1,1,33,0,0,0,1,1,1,1,-0,-0,-0,-0,1.22106958268068
3,2,1,1,34,1,1,1,-0,1,1,1,1,-0,-0,-0,0.843469810236456
3,2,1,1,35,1,1,1,1,-0,1,1,-0,1,-0,-0,0.792436867412107
3,2,1,1,36,1,1,1,1,1,-0,1,-0,-0,1,-0,0.824118300714872
3,2,1,1,37,1,1,1,1,1,1,-0,-0,-0,-0,1,0.914518471130577
3,2,1,1,38,0,1,1,1,1,1,1,-0,-0,-0,-0,0.650486863904007
3,2,1,1,39,1,1,1,0,1,1,1,-1,-0,-0,-0,0.611169613422135
3,2,1,1,40,1,1,1,1,0,1,1,-0,-1,-0,-0,0.946039319404008
3,2,1,1,41,1,1,1,1,1,0,1,-0,-0,-1,-0,1.02762993480701
3,2,1,1,42,1,1,1,1,1,1,0,-0,-0,-0,-1,0.692030786889518
3,2,1,1,43,1,1,1,1,1,1,1,-0,-0,-0,-0,0.728196373806895
3,2,1,1,44,0,1,1,1,1,1,1,-0,-0,-0,-0,0.70486006576084
3,2,1,1,45,1,1,1,0,1,1,1,-1,-0,-0,-0,0.787876307110309
3,2,1,1,46,1,1,1,1,0,1,1,-0,-1,-0,-0,0.895212397291289
3,2,1,1,47,0,1,1,1,1,0,1,-0,-0,-1,-0,0.685192303193617
3,2,1,1,48,1,1,1,0,1,1,0,-1,-0,-0,-1,0.874041502403998
3,2,1,1,49,0,1,1,1,0,1,1,-0,-1,-0,-0,1.1308805230783
3,2,1,1,50,1,1,1,0,1,0,1,-1,-0,-1,-0,1.04386770943711
3,2,1,1,51,0,1,1,1,0,1,0,-0,-1,-0,-1,0.822088523960701
3,2,1,1,52,0,0,0,0,1,0,1,-1,-0,-1,-0,0.641497961018104
3,2,1,1,53,1,1,1,-0,0,1,0,1,-1,-0,-1,0.709492792389938
3,2,1,1,54,1,1,1,1,-0,0,1,-0,1,-1,-0,0.906182079881546
3,2,1,1,55,0,0,0,1,1,-0,0,-0,-0,1,-1,0.818540652660886
3,2,1,1,56,0,1,0,-0,1,1,-0,1,-0,-0,1,0.777823990617435
3,2,1,1,57,1,1,0,0,-0,1,1,-1,1,-0,-0,0.736025280100876
3,2,1,1,58,0,1,0,1,0,-0,1,-0,-1,1,-0,0.717015064140469
3,2,1,1,59,0,1,0,0,1,0,-0,-1,-0,-1,1,0.768927862076453
3,2,1,1,60,1,1,0,0,0,1,0,-1,-1,-0,-1,0.642203865444571
3,2,1,1,61,1,0,1,1,0,0,1,-0,-1,-1,-0,0.858314941841854
3,2,1,1,62,1,0,1,-1,1,0,0,0,-0,-1,-1,0.969736489489151
3,2,1,1,63,1,0,1,-1,-1,1,0,0,0,-0,-1,0.612565722248291
3,2,1,1,64,0,1,0,-1,-1,-1,1,0,0,0,-0,0.632213726537884
3,2,1,1,65,1,0,1,0,-1,-1,-1,-1,0,0,0,0.556355604860983
3,2,1,1,66,1,0,1,-1,0,-1,-1,0,-1,0,0,0.728353713238903
3,2,1,1,67,0,0,1,-1,-1,0,-1,0,0,-1,0,1.24538146705163
3,2,1,1,68,1,0,1,-0,-1,-1,0,1,0,0,-1,0.518934472226647
3,2,1,1,69,1,0,1,-1,-0,-1,-1,0,1,0,0,0.690115843043714
3,2,1,1,70,1,0,1,-1,-1,-0,-1,0,0,1,0,0.669013716179506
3,2,1,1,71,0,0,0,-1,-1,-1,-0,0,0,0,1,1.14288453788777
3,2,1,1,72,0,0,0,-0,-1,-1,-1,1,0,0,0,0.854181773132041
3,2,1,1,73,0,0,0,-0,-0,-1,-1,1,1,0,0,0.577981787167118
3,2,1,1,74,1,1,1,-0,-0,-0,-1,1,1,1,0,0.579479095590614
3,2,1,1,75,1,1,1,1,-0,-0,-0,-0,1,1,1,0.605861073222513
3,2,1,1,76,0,1,1,1,1,-0,-0,-0,-0,1,1,0.717414109473793
3,2,1,1,77,1,1,1,0,1,1,-0,-1,-0,-0,1,0.926115513905643
3,2,1,1,78,1,1,1,1,0,1,1,-0,-1,-0,-0,0.777491019724948
3,2,1,1,79,1,1,1,1,1,0,1,-0,-0,-1,-0,1.23871579325441
3,2,1,1,80,1,1,1,1,1,1,0,-0,-0,-0,-1,0.964434071581309
3,2,1,1,81,0,1,1,1,1,1,1,-0,-0,-0,-0,0.723753839213714
3,2,1,1,82,1,1,1,0,1,1,1,-1,-0,-0,-0,1.35591850087076
3,2,1,1,83,1,1,1,1,0,1,1,-0,-1,-0,-0,0.921521566694537
3,2,1,1,84,1,1,1,1,1,0,1,-0,-0,-1,-0,0.771291432065482
3,2,1,1,85,1,1,1,1,1,1,0,-0,-0,-0,-1,0.973203826349163
3,2,1,1,86,0,0,0,1,1,1,1,-0,-0,-0,-0,1.25989476521045
3,2,1,1,87,1,1,1,-0,1,1,1,1,-0,-0,-0,0.590407384375794
3,2,1,1,88,0,1,1,1,-0,1,1,-0,1,-0,-0,1.20000556359355
3,2,1,1,89,0,1,1,0,1,-0,1,-1,-0,1,-0,1.07495136951275
3,2,1,1,90,1,1,1,0,0,1,-0,-1,-1,-0,1,0.669814878352554
3,2,1,1,91,1,1,0,1,0,0,1,-0,-1,-1,-0,0.731168032225469
3,2,1,1,92,0,1,0,1,1,0,0,-0,-0,-1,-1,0.70460212285434
3,2,1,1,93,1,1,0,0,1,1,0,-1,-0,-0,-1,0.6341702419586
3,2,1,1,94,1,1,0,1,0,1,1,-0,-1,-0,-0,1.29755077138452
3,2,1,1,95,0,1,0,1,1,0,1,-0,-0,-1,-0,0.711156906040742
3,2,1,1,96,0,1,0,0,1,1,0,-1,-0,-0,-1,0.601521833345942
3,2,1,1,97,0,0,0,0,0,1,1,-1,-1,-0,-0,0
3,2,1,1,98,0,1,0,NaN,0,0,1,NaN,-1,-1,-0,0.394260785519691
3,2,1,1,99,1,0,1,0,NaN,0,0,-1,NaN,-1,-1,0.666368673124452
3,2,1,1,100,1,0,1,-1,0,NaN,0,0,-1,NaN,-1,0.701632672496999
3,2,1,1,101,0,0,1,-1,-1,0,NaN,0,0,-1,NaN,0.528362282510898
3,2,1,1,102,1,0,1,-0,-1,-1,0,1,0,0,-1,0.616263710332532
3,2,1,1,103,1,0,1,-1,-0,-1,-1,0,1,0,0,0.859346735524014
3,2,1,1,104,1,0,1,-1,-1,-0,-1,0,0,1,0,0.650705031961479
3,2,1,1,105,1,0,1,-1,-1,-1,-0,0,0,0,1,0.79128347195001
3,2,1,1,106,0,0,0,-1,-1,-1,-1,0,0,0,0,0.759966536570573
3,2,1,1,107,1,0,0,-0,-1,-1,-1,1,0,0,0,0.840563579678928
3,2,1,1,108,0,0,0,-1,-0,-1,-1,0,1,0,0,0.757834497288968
3,2,1,1,109,0,0,0,-0,-1,-0,-1,1,0,1,0,0.759418241904314
3,2,1,1,110,1,0,0,-0,-0,-1,-0,1,1,0,1,0.78610904877587
3,2,1,1,111,1,0,0,-1,-0,-0,-1,0,1,1,0,0.60456185379644
3,2,1,1,112,1,0,0,-1,-1,-0,-0,0,0,1,1,1.00152563363099
3,2,1,1,113,1,0,0,-1,-1,-1,-0,0,0,0,1,1.0253199006238
3,2,1,1,114,0,0,0,-1,-1,-1,-1,0,0,0,0,1.05723827785823
3,2,1,1,115,1,1,1,-0,-1,-1,-1,1,0,0,0,0.679909428035899
3,2,1,1,116,1,1,1,1,-0,-1,-1,-0,1,0,0,0.674181422275069
3,2,1,1,117,1,1,1,1,1,-0,-1,-0,-0,1,0,0.793490045678482
3,2,1,1,118,0,0,0,1,1,1,-0,-0,-0,-0,1,0
3,2,1,1,119,1,1,1,NaN,1,1,1,NaN,-0,-0,-0,0.680818115595685
3,2,1,1,120,1,1,1,1,NaN,1,1,-0,NaN,-0,-0,1.03015906431392
3,2,1,1,121,1,1,1,1,1,NaN,1,-0,-0,NaN,-0,0.807642261926048
3,2,1,1,122,1,1,1,1,1,1,NaN,-0,-0,-0,NaN,0.64327476467497
3,2,1,1,123,0,1,1,1,1,1,1,-0,-0,-0,-0,0.758346510975571
3,2,1,1,124,1,0,0,0,1,1,1,-1,-0,-0,-0,1.0024180063283
3,2,1,1,125,0,0,0,-1,0,1,1,0,-1,-0,-0,0.856206394957553
3,2,1,1,126,0,0,1,-0,-1,0,1,1,0,-1,-0,0.76667757888481
3,2,1,1,127,0,0,1,-0,-0,-1,0,1,1,0,-1,0.739746670364184
3,2,1,1,128,0,1,0,-0,-0,-0,-1,1,1,1,0,0.761940399375817
3,2,1,1,129,0,1,0,0,-0,-0,-0,-1,1,1,1,1.41873335349374
3,2,1,1,130,0,1,0,0,0,-0,-0,-1,-1,1,1,0.59491305823849
3,2,1,1,131,1,0,1,0,0,0,-0,-1,-1,-1,1,1.09843333645222
3,2,1,1,132,0,0,1,-1,0,0,0,0,-1,-1,-1,0.962373481873328
3,2,1,1,133,1,0,1,-0,-1,0,0,1,0,-1,-1,0.667935203347042
3,2,1,1,134,1,0,1,-1,-0,-1,0,0,1,0,-1,1.2826798721544
3,2,1,1,135,1,0,1,-1,-1,-0,-1,0,0,1,0,1.13065885881224
3,2,1,1,136,1,0,1,-1,-1,-1,-0,0,0,0,1,1.00305941082661
3,2,1,1,137,1,0,1,-1,-1,-1,-1,0,0,0,0,1.30806970531194
3,2,1,1,138,1,0,1,-1,-1,-1,-1,0,0,0,0,0.552013788690601
3,2,1,1,139,1,0,1,-1,-1,-1,-1,0,0,0,0,0.875295212970741
3,2,1,1,140,1,1,0,-1,-1,-1,-1,0,0,0,0,1.10536330601099
3,2,1,1,141,1,1,0,1,-1,-1,-1,-0,0,0,0,0.552218909870135
3,2,1,1,142,0,0,1,1,1,-1,-1,-0,-0,0,0,0.594578358122817
3,2,1,1,143,0,1,0,-0,1,1,-1,1,-0,-0,0,0.891082902558992
3,2,1,1,144,0,1,0,0,-0,1,1,-1,1,-0,-0,0.661762529112821
3,2,1,1,145,0,1,0,0,0,-0,1,-1,-1,1,-0,0.664722391042233
3,2,1,1,146,0,1,0,0,0,0,-0,-1,-1,-1,1,1.05047333384573
3,2,1,1,147,1,0,1,0,0,0,0,-1,-1,-1,-1,0.917042846354889
3,2,1,1,148,1,0,1,-1,0,0,0,0,-1,-1,-1,1.47553315200093
3,2,1,1,149,1,0,1,-1,-1,0,0,0,0,-1,-1,1.05748357987977
3,2,1,1,150,1,0,1,-1,-1,-1,0,0,0,0,-1,0.822439581375875
3,2,1,1,151,0,0,1,-1,-1,-1,-1,0,0,0,0,0.725577272136434
3,2,1,1,152,1,0,1,-0,-1,-1,-1,1,0,0,0,0.876265606631932
3,2,1,1,153,1,0,1,-1,-0,-1,-1,0,1,0,0,0.908626101441769
3,2,1,1,154,1,0,1,-1,-1,-0,-1,0,0,1,0,1.22221244006141
3,2,1,1,155,1,0,1,-1,-1,-1,-0,0,0,0,1,1.0642206835364
3,2,1,1,156,1,0,1,-1,-1,-1,-1,0,0,0,0,1.11545935134745
3,2,1,1,157,0,0,0,-1,-1,-1,-1,0,0,0,0,0
3,2,1,1,158,0,0,1,NaN,-1,-1,-1,NaN,0,0,0,0.660440902271148
3,2,1,1,159,1,0,1,-0,NaN,-1,-1,1,NaN,0,0,0.792388180787384
3,2,1,1,160,1,0,1,-1,-0,NaN,-1,0,1,NaN,0,0.664276345871258
4,2,1,1,1,0,0,0,NaN,NaN,NaN,NaN,NaN,NaN,NaN,NaN,0.671474135718654
4,2,1,1,2,0,0,0,-0,NaN,NaN,NaN,1,NaN,NaN,NaN,0.506513156188817
4,2,1,1,3,1,0,0,-0,-0,NaN,NaN,1,1,NaN,NaN,0.63928512995119
4,2,1,1,4,0,0,0,-1,-0,-0,NaN,0,1,1,NaN,0.841111173671607
4,2,1,1,5,1,1,1,-0,-1,-0,-0,1,0,1,1,0.747288836687062
4,2,1,1,6,1,1,1,1,-0,-1,-0,-0,1,0,1,0.651604468933897
4,2,1,1,7,1,1,1,1,1,-0,-1,-0,-0,1,0,0.527614982991736
4,2,1,1,8,1,1,1,1,1,1,-0,-0,-0,-0,1,0.624834228746408
4,2,1,1,9,1,1,1,1,1,1,1,-0,-0,-0,-0,0.690249062038447
4,2,1,1,10,1,1,1,1,1,1,1,-0,-0,-0,-0,0.637108579658161
4,2,1,1,11,1,1,1,1,1,1,1,-0,-0,-0,-0,0.703578512092918
4,2,1,1,12,1,1,1,1,1,1,1,-0,-0,-0,-0,0.688198605254115
4,2,1,1,13,1,1,1,1,1,1,1,-0,-0,-0,-0,0.557629415636939
4,2,1,1,14,1,1,1,1,1,1,1,-0,-0,-0,-0,0.626830207240459
4,2,1,1,15,1,1,1,1,1,1,1,-0,-0,-0,-0,0.680692780670029
4,2,1,1,16,1,1,1,1,1,1,1,-0,-0,-0,-0,0.607858319020579
4,2,1,1,17,1,1,1,1,1,1,1,-0,-0,-0,-0,0.655826849692289
4,2,1,1,18,0,1,1,1,1,1,1,-0,-0,-0,-0,0.559070010291862
4,2,1,1,19,1,1,1,0,1,1,1,-1,-0,-0,-0,0.98293310466272
4,2,1,1,20,1,1,1,1,0,1,1,-0,-1,-0,-0,0.593094374235648
4,2,1,1,21,1,1,1,1,1,0,1,-0,-0,-1,-0,0.587505044007685
4,2,1,1,22,1,1,1,1,1,1,0,-0,-0,-0,-1,0.639721272379802
4,2,1,1,23,1,1,1,1,1,1,1,-0,-0,-0,-0,0.648328659119329
4,2,1,1,24,0,1,1,1,1,1,1,-0,-0,-0,-0,0.650040497416967
4,2,1,1,25,1,1,1,0,1,1,1,-1,-0,-0,-0,0.637024742202584
4,2,1,1,26,1,1,1,1,0,1,1,-0,-1,-0,-0,0.619632621814617
4,2,1,1,27,1,1,1,1,1,0,1,-0,-0,-1,-0,0.588354314556341
4,2,1,1,28,1,1,1,1,1,1,0,-0,-0,-0,-1,0.604976563659079
4,2,1,1,29,1,1,1,1,1,1,1,-0,-0,-0,-0,0.598613918721071
4,2,1,1,30,1,1,1,1,1,1,1,-0,-0,-0,-0,0.569632443378168
4,2,1,1,31,1,1,1,1,1,1,1,-0,-0,-0,-0,0.468444038748089
4,2,1,1,32,1,1,1,1,1,1,1,-0,-0,-0,-0,0.548167685938324
4,2,1,1,33,1,1,1,1,1,1,1,-0,-0,-0,-0,0.474214377176168
4,2,1,1,34,0,1,1,1,1,1,1,-0,-0,-0,-0,0.631982352489104
4,2,1,1,35,1,1,1,0,1,1,1,-1,-0,-0,-0,0.477448136440671
4,2,1,1,36,1,1,1,1,0,1,1,-0,-1,-0,-0,0.498366652075447
4,2,1,1,37,0,1,1,1,1,0,1,-0,-0,-1,-0,0.612549131207516
4,2,1,1,38,1,1,1,0,1,1,0,-1,-0,-0,-1,0.655799720649838
4,2,1,1,39,1,1,1,1,0,1,1,-0,-1,-0,-0,0.510396046326605
4,2,1,1,40,1,1,1,1,1,0,1,-0,-0,-1,-0,0.588090223079007
4,2,1,1,41,1,1,1,1,1,1,0,-0,-0,-0,-1,0.516336806386335
4,2,1,1,42,1,1,1,1,1,1,1,-0,-0,-0,-0,0.485583465879927
4,2,1,1,43,1,1,1,1,1,1,1,-0,-0,-0,-0,0.698892141105262
4,2,1,1,44,1,1,1,1,1,1,1,-0,-0,-0,-0,0.650757952791082
4,2,1,1,45,1,1,1,1,1,1,1,-0,-0,-0,-0,0.673870293317577
4,2,1,1,46,1,1,1,1,1,1,1,-0,-0,-0,-0,0.582958685584117
4,2,1,1,47,0,1,1,1,1,1,1,-0,-0,-0,-0,0.73674622743647
4,2,1,1,48,1,1,1,0,1,1,1,-1,-0,-0,-0,0.645595687448576
4,2,1,1,49,1,1,1,1,0,1,1,-0,-1,-0,-0,0.629688003983119
4,2,1,1,50,1,1,1,1,1,0,1,-0,-0,-1,-0,0.58472511979312
4,2,1,1,51,1,1,1,1,1,1,0,-0,-0,-0,-1,0.637861115863416
4,2,1,1,52,1,1,1,1,1,1,1,-0,-0,-0,-0,0.571916275821422
4,2,1,1,53,1,1,1,1,1,1,1,-0,-0,-0,-0,0.673405724338863
4,2,1,1,54,0,1,1,1,1,1,1,-0,-0,-0,-0,0.58491208991336
4,2,1,1,55,1,1,1,0,1,1,1,-1,-0,-0,-0,0.629284376775331
4,2,1,1,56,0,1,0,1,0,1,1,-0,-1,-0,-0,0.599010531433578
4,2,1,1,57,0,1,0,0,1,0,1,-1,-0,-1,-0,0.846425944811699
4,2,1,1,58,0,1,0,0,0,1,0,-1,-1,-0,-1,0.621194493193343
4,2,1,1,59,1,0,1,0,0,0,1,-1,-1,-1,-0,0.797240815194527
4,2,1,1,60,1,0,1,-1,0,0,0,0,-1,-1,-1,0.557657471948005
4,2,1,1,61,1,0,1,-1,-1,0,0,0,0,-1,-1,0.56058234814509
4,2,1,1,62,1,0,1,-1,-1,-1,0,0,0,0,-1,0.718118002713254
4,2,1,1,63,1,0,1,-1,-1,-1,-1,0,0,0,0,0.652896640447125
4,2,1,1,64,1,0,1,-1,-1,-1,-1,0,0,0,0,0.643751106707668
4,2,1,1,65,1,0,1,-1,-1,-1,-1,0,0,0,0,0.714493339370392
4,2,1,1,66,1,0,1,-1,-1,-1,-1,0,0,0,0,0.604542441506965
4,2,1,1,67,1,0,1,-1,-1,-1,-1,0,0,0,0,0.653278509753818
4,2,1,1,68,1,0,1,-1,-1,-1,-1,0,0,0,0,0.613165038126454
4,2,1,1,69,1,0,1,-1,-1,-1,-1,0,0,0,0,0.537465345879582
4,2,1,1,70,0,0,1,-1,-1,-1,-1,0,0,0,0,0.705686629954698
4,2,1,1,71,0,0,0,-0,-1,-1,-1,1,0,0,0,0.575326434342514
4,2,1,1,72,0,0,0,-0,-0,-1,-1,1,1,0,0,0.726997142341588
4,2,1,1,73,0,1,1,-0,-0,-0,-1,1,1,1,0,0.526919255779148
4,2,1,1,74,0,1,1,0,-0,-0,-0,-1,1,1,1,0.536660707531155
4,2,1,1,75,1,1,1,0,0,-0,-0,-1,-1,1,1,0.728435649221865
4,2,1,1,76,1,1,1,1,0,0,-0,-0,-1,-1,1,0.45919898919351
4,2,1,1,77,1,1,1,1,1,0,0,-0,-0,-1,-1,0.507979351145877
4,2,1,1,78,0,0,0,1,1,1,0,-0,-0,-0,-1,0.666500422032641
4,2,1,1,79,1,0,0,-0,1,1,1,1,-0,-0,-0,0.528663255097626
4,2,1,1,80,1,1,1,-1,-0,1,1,0,1,-0,-0,0.478585393930643
4,2,1,1,81,0,0,0,1,-1,-0,1,-0,0,1,-0,0.727750510582609
4,2,1,1,82,0,0,0,-0,1,-1,-0,1,-0,0,1,0.753785519571238
4,2,1,1,83,0,0,0,-0,-0,1,-1,1,1,-0,0,0.666164928525177
4,2,1,1,84,1,1,1,-0,-0,-0,1,1,1,1,-0,0.702257141806967
4,2,1,1,85,1,1,1,1,-0,-0,-0,-0,1,1,1,0.670721514305114
4,2,1,1,86,1,1,1,1,1,-0,-0,-0,-0,1,1,0.68997188354183
4,2,1,1,87,1,1,1,1,1,1,-0,-0,-0,-0,1,0.716897454104355
4,2,1,1,88,1,1,1,1,1,1,1,-0,-0,-0,-0,0.766276435679401
4,2,1,1,89,1,1,1,1,1,1,1,-0,-0,-0,-0,0.632658198726176
4,2,1,1,90,1,1,1,1,1,1,1,-0,-0,-0,-0,1.13058528299234
4,2,1,1,91,1,1,0,1,1,1,1,-0,-0,-0,-0,0.691080536378877
4,2,1,1,92,1,1,0,1,1,1,1,-0,-0,-0,-0,0.56233346253839
4,2,1,1,93,0,1,0,1,1,1,1,-0,-0,-0,-0,0.745002718317437
4,2,1,1,94,0,1,0,0,1,1,1,-1,-0,-0,-0,0.794915160091705
4,2,1,1,95,1,1,0,0,0,1,1,-1,-1,-0,-0,0.669592627294833
4,2,1,1,96,0,1,0,1,0,0,1,-0,-1,-1,-0,0.669775281856346
4,2,1,1,97,1,0,1,0,1,0,0,-1,-0,-1,-1,0.967834991947029
4,2,1,1,98,1,0,1,-1,0,1,0,0,-1,-0,-1,0.693954262094621
4,2,1,1,99,1,0,1,-1,-1,0,1,0,0,-1,-0,0.525129867742862
4,2,1,1,100,1,0,1,-1,-1,-1,0,0,0,0,-1,0.530057153167945
4,2,1,1,101,1,0,1,-1,-1,-1,-1,0,0,0,0,0.77691783664045
4,2,1,1,102,1,0,1,-1,-1,-1,-1,0,0,0,0,0.713248924702384
4,2,1,1,103,1,0,1,-1,-1,-1,-1,0,0,0,0,0.61477955564601
4,2,1,1,104,1,0,1,-1,-1,-1,-1,0,0,0,0,0.61357048244713
4,2,1,1,105,1,0,1,-1,-1,-1,-1,0,0,0,0,0.936539585185074
4,2,1,1,106,0,0,0,-1,-1,-1,-1,0,0,0,0,0.667226312711819
4,2,1,1,107,0,0,0,-0,-1,-1,-1,1,0,0,0,0.590648557804798
4,2,1,1,108,0,0,0,-0,-0,-1,-1,1,1,0,0,0.420247903871541
4,2,1,1,109,1,0,0,-0,-0,-0,-1,1,1,1,0,0.477933965101329
4,2,1,1,110,1,1,1,-1,-0,-0,-0,0,1,1,1,0.538006429731468
4,2,1,1,111,1,1,1,1,-1,-0,-0,-0,0,1,1,0.557522747321855
4,2,1,1,112,1,1,1,1,1,-1,-0,-0,-0,0,1,0.627284455968947
4,2,1,1,113,1,1,1,1,1,1,-1,-0,-0,-0,0,0.604143339704478
4,2,1,1,114,1,1,1,1,1,1,1,-0,-0,-0,-0,0.522680291780716
4,2,1,1,115,1,1,1,1,1,1,1,-0,-0,-0,-0,0.746071952042712
4,2,1,1,116,1,1,1,1,1,1,1,-0,-0,-0,-0,0.622494077843612
4,2,1,1,117,1,1,1,1,1,1,1,-0,-0,-0,-0,0.622256734811344
4,2,1,1,118,0,1,1,1,1,1,1,-0,-0,-0,-0,0.6480815919615
4,2,1,1,119,1,1,1,0,1,1,1,-1,-0,-0,-0,0.625561089465691
4,2,1,1,120,1,1,1,1,0,1,1,-0,-1,-0,-0,0.754660151838152
4,2,1,1,121,1,1,1,1,1,0,1,-0,-0,-1,-0,0.584549199708817
4,2,1,1,122,0,1,1,1,1,1,0,-0,-0,-0,-1,0.638802396530309
4,2,1,1,123,1,1,1,0,1,1,1,-1,-0,-0,-0,0.475907787720644
4,2,1,1,124,1,1,1,1,0,1,1,-0,-1,-0,-0,0.945151894301262
4,2,1,1,125,1,1,1,1,1,0,1,-0,-0,-1,-0,0.560505429951945
4,2,1,1,126,0,1,0,1,1,1,0,-0,-0,-0,-1,0.559271240301314
4,2,1,1,127,0,1,0,0,1,1,1,-1,-0,-0,-0,0.647716045257312
4,2,1,1,128,1,0,1,0,0,1,1,-1,-1,-0,-0,0.650810463600919
4,2,1,1,129,1,0,1,-1,0,0,1,0,-1,-1,-0,0.542721832082634
4,2,1,1,130,0,0,1,-1,-1,0,0,0,0,-1,-1,0.667553716426255
4,2,1,1,131,1,0,1,-0,-1,-1,0,1,0,0,-1,0.737244326117889
4,2,1,1,132,1,0,1,-1,-0,-1,-1,0,1,0,0,0.667985036723167
4,2,1,1,133,1,0,1,-1,-1,-0,-1,0,0,1,0,0.603821216576534
4,2,1,1,134,1,0,1,-1,-1,-1,-0,0,0,0,1,0.592617076446913
4,2,1,1,135,1,0,1,-1,-1,-1,-1,0,0,0,0,0.584644730774471
4,2,1,1,136,0,1,0,-1,-1,-1,-1,0,0,0,0,0.894019364712449
4,2,1,1,137,0,0,1,0,-1,-1,-1,-1,0,0,0,0.973079696657805
4,2,1,1,138,1,0,1,-0,0,-1,-1,1,-1,0,0,1.15324955457686
4,2,1,1,139,1,0,1,-1,-0,0,-1,0,1,-1,0,0.620733172161181
4,2,1,1,140,1,0,1,-1,-1,-0,0,0,0,1,-1,0.759920635154003
4,2,1,1,141,1,0,1,-1,-1,-1,-0,0,0,0,1,0.699947623518938
4,2,1,1,142,1,0,1,-1,-1,-1,-1,0,0,0,0,0.575406613180348
4,2,1,1,143,1,0,1,-1,-1,-1,-1,0,0,0,0,0.992985108565563
4,2,1,1,144,0,0,1,-1,-1,-1,-1,0,0,0,0,0.503343112816083
4,2,1,1,145,1,0,1,-0,-1,-1,-1,1,0,0,0,0.835490752374199
4,2,1,1,146,1,0,1,-1,-0,-1,-1,0,1,0,0,0.988746355082185
4,2,1,1,147,1,0,1,-1,-1,-0,-1,0,0,1,0,1.47763165712104
4,2,1,1,148,1,0,1,-1,-1,-1,-0,0,0,0,1,0.716120114881278
4,2,1,1,149,1,0,1,-1,-1,-1,-1,0,0,0,0,0.736196727994411
4,2,1,1,150,1,0,1,-1,-1,-1,-1,0,0,0,0,0.673044618165932
4,2,1,1,151,1,0,1,-1,-1,-1,-1,0,0,0,0,0.780289255043954
4,2,1,1,152,1,0,1,-1,-1,-1,-1,0,0,0,0,0.833520253887855
4,2,1,1,153,1,0,1,-1,-1,-1,-1,0,0,0,0,0.617184542513996
4,2,1,1,154,1,0,1,-1,-1,-1,-1,0,0,0,0,0.606823728054678
4,2,1,1,155,1,0,1,-1,-1,-1,-1,0,0,0,0,0.665590821543219
4,2,1,1,156,1,0,1,-1,-1,-1,-1,0,0,0,0,0.740063433534033
4,2,1,1,157,0,0,1,-1,-1,-1,-1,0,0,0,0,0.640600515929009
4,2,1,1,158,1,0,1,-0,-1,-1,-1,1,0,0,0,0.607197577405941
4,2,1,1,159,1,0,1,-1,-0,-1,-1,0,1,0,0,0.641889306837356
4,2,1,1,160,1,0,1,-1,-1,-0,-1,0,0,1,0,0.58169354253414
5,2,1,1,1,1,0,1,NaN,NaN,NaN,NaN,NaN,NaN,NaN,NaN,1.2536231291524
5,2,1,1,2,1,0,1,-1,NaN,NaN,NaN,0,NaN,NaN,NaN,0.923234261503239
5,2,1,1,3,1,0,1,-1,-1,NaN,NaN,0,0,NaN,NaN,0.777108975049487
5,2,1,1,4,1,0,1,-1,-1,-1,NaN,0,0,0,NaN,1.26429778322199
5,2,1,1,5,1,1,0,-1,-1,-1,-1,0,0,0,0,0.547968811715691
5,2,1,1,6,0,1,0,1,-1,-1,-1,-0,0,0,0,1.07452545085835
5,2,1,1,7,0,1,0,0,1,-1,-1,-1,-0,0,0,1.15310087715261
5,2,1,1,8,0,0,0,0,0,1,-1,-1,-1,-0,0,0
5,2,1,1,9,1,0,1,NaN,0,0,1,NaN,-1,-1,-0,0.707653092766122
5,2,1,1,10,0,1,0,-1,NaN,0,0,0,NaN,-1,-1,0.697738423059491
5,2,1,1,11,1,0,1,0,-1,NaN,0,-1,0,NaN,-1,0.835199541874317
5,2,1,1,12,0,1,0,-1,0,-1,NaN,0,-1,0,NaN,0.684505639521376
5,2,1,1,13,1,0,1,0,-1,0,-1,-1,0,-1,0,0.689743231541797
5,2,1,1,14,1,0,1,-1,0,-1,0,0,-1,0,-1,1.22224336453291
5,2,1,1,15,1,0,1,-1,-1,0,-1,0,0,-1,0,0.673914854160103
5,2,1,1,16,0,0,1,-1,-1,-1,0,0,0,0,-1,0.657164326363272
5,2,1,1,17,0,1,0,-0,-1,-1,-1,1,0,0,0,0.712419048461015
5,2,1,1,18,0,1,0,0,-0,-1,-1,-1,1,0,0,1.10066364869635
5,2,1,1,19,0,0,1,0,0,-0,-1,-1,-1,1,0,0.977731771050458
5,2,1,1,20,1,1,0,-0,0,0,-0,1,-1,-1,1,0.935692945669871
5,2,1,1,21,1,0,1,1,-0,0,0,-0,1,-1,-1,1.32250788102465
5,2,1,1,22,0,1,0,-1,1,-0,0,0,-0,1,-1,0.564231067655783
5,2,1,1,23,0,1,0,0,-1,1,-0,-1,0,-0,1,0.664055255074345
5,2,1,1,24,1,0,1,0,0,-1,1,-1,-1,0,-0,0.676855433179298
5,2,1,1,25,1,1,0,-1,0,0,-1,0,-1,-1,0,0.801984598831041
5,2,1,1,26,1,0,1,1,-1,0,0,-0,0,-1,-1,0.53693442891381
5,2,1,1,27,1,0,1,-1,1,-1,0,0,-0,0,-1,0.687688381123735
5,2,1,1,28,0,0,1,-1,-1,1,-1,0,0,-0,0,0.579192310109647
5,2,1,1,29,0,1,0,-0,-1,-1,1,1,0,0,-0,0.702967248875211
5,2,1,1,30,1,0,1,0,-0,-1,-1,-1,1,0,0,0.499729579001723
5,2,1,1,31,1,1,0,-1,0,-0,-1,0,-1,1,0,0.53085846229078
5,2,1,1,32,1,0,1,1,-1,0,-0,-0,0,-1,1,0.626248774486157
5,2,1,1,33,0,1,0,-1,1,-1,0,0,-0,0,-1,1.10928922385938
5,2,1,1,34,1,0,1,0,-1,1,-1,-1,0,-0,0,0.542633291453967
5,2,1,1,35,1,0,1,-1,0,-1,1,0,-1,0,-0,0.76247642040471
5,2,1,1,36,1,0,1,-1,-1,0,-1,0,0,-1,0,0.489623737314105
5,2,1,1,37,0,1,0,-1,-1,-1,0,0,0,0,-1,0.582284549043834
5,2,1,1,38,0,1,0,0,-1,-1,-1,-1,0,0,0,0.464331966199097
5,2,1,1,39,1,0,1,0,0,-1,-1,-1,-1,0,0,0.869460291447467
5,2,1,1,40,1,0,1,-1,0,0,-1,0,-1,-1,0,0.50413949268841
5,2,1,1,41,1,0,1,-1,-1,0,0,0,0,-1,-1,0.41779362199668
5,2,1,1,42,0,1,0,-1,-1,-1,0,0,0,0,-1,0.573471012117807
5,2,1,1,43,0,1,0,0,-1,-1,-1,-1,0,0,0,0.950041289768706
5,2,1,1,44,0,0,1,0,0,-1,-1,-1,-1,0,0,0.486204334316426
5,2,1,1,45,1,1,0,-0,0,0,-1,1,-1,-1,0,0.72990508348812
5,2,1,1,46,1,0,1,1,-0,0,0,-0,1,-1,-1,0.647179138417414
5,2,1,1,47,0,1,0,-1,1,-0,0,0,-0,1,-1,0.592193940781726
5,2,1,1,48,0,1,0,0,-1,1,-0,-1,0,-0,1,0.64645228043446
5,2,1,1,49,1,0,1,0,0,-1,1,-1,-1,0,-0,0.423760628607852
5,2,1,1,50,1,0,1,-1,0,0,-1,0,-1,-1,0,0.503199947204848
5,2,1,1,51,1,0,1,-1,-1,0,0,0,0,-1,-1,0.419777210012398
5,2,1,1,52,1,0,1,-1,-1,-1,0,0,0,0,-1,0.500710345746484
5,2,1,1,53,0,0,1,-1,-1,-1,-1,0,0,0,0,0.522529586014571
5,2,1,1,54,0,1,0,-0,-1,-1,-1,1,0,0,0,0.533067617114284
5,2,1,1,55,1,0,1,0,-0,-1,-1,-1,1,0,0,0.477125706485822
5,2,1,1,56,1,0,0,-1,0,-0,-1,0,-1,1,0,0.479641386671574
5,2,1,1,57,1,1,1,-1,-1,0,-0,0,0,-1,1,0.629624682973372
5,2,1,1,58,1,1,1,1,-1,-1,0,-0,0,0,-1,0.675803062858904
5,2,1,1,59,0,0,0,1,1,-1,-1,-0,-0,0,0,0.612372048999532
5,2,1,1,60,1,1,1,-0,1,1,-1,1,-0,-0,0,0.599501177224738
5,2,1,1,61,0,0,0,1,-0,1,1,-0,1,-0,-0,0.437685076336493
5,2,1,1,62,1,1,1,-0,1,-0,1,1,-0,1,-0,0.443918680226489
5,2,1,1,63,0,0,0,1,-0,1,-0,-0,1,-0,1,0.560402742736187
5,2,1,1,64,0,0,0,-0,1,-0,1,1,-0,1,-0,0.599607886710146
5,2,1,1,65,1,1,1,-0,-0,1,-0,1,1,-0,1,0.499946504241962
5,2,1,1,66,1,1,1,1,-0,-0,1,-0,1,1,-0,0.474036905667163
5,2,1,1,67,1,1,1,1,1,-0,-0,-0,-0,1,1,0.434029734045907
5,2,1,1,68,1,1,1,1,1,1,-0,-0,-0,-0,1,0.54123093666567
5,2,1,1,69,1,1,1,1,1,1,1,-0,-0,-0,-0,0.46598399501454
5,2,1,1,70,1,1,1,1,1,1,1,-0,-0,-0,-0,0.459017335251701
5,2,1,1,71,0,1,0,1,1,1,1,-0,-0,-0,-0,0.352305589731259
5,2,1,1,72,0,1,0,0,1,1,1,-1,-0,-0,-0,0.42154510313776
5,2,1,1,73,1,0,1,0,0,1,1,-1,-1,-0,-0,0.447581931945024
5,2,1,1,74,1,0,1,-1,0,0,1,0,-1,-1,-0,0.304601143478067
5,2,1,1,75,0,0,1,-1,-1,0,0,0,0,-1,-1,0.472252106006636
5,2,1,1,76,0,1,0,-0,-1,-1,0,1,0,0,-1,0.579739170898392
5,2,1,1,77,1,0,1,0,-0,-1,-1,-1,1,0,0,0.466087830103788
5,2,1,1,78,0,0,1,-1,0,-0,-1,0,-1,1,0,0.405088692888967
5,2,1,1,79,1,0,1,-0,-1,0,-0,1,0,-1,1,1.3054412162528
5,2,1,1,80,0,1,0,-1,-0,-1,0,0,1,0,-1,0.446072175647714
5,2,1,1,81,1,0,1,0,-1,-0,-1,-1,0,1,0,0.485165154062997
5,2,1,1,82,0,1,0,-1,0,-1,-0,0,-1,0,1,0.356898921683751
5,2,1,1,83,1,0,1,0,-1,0,-1,-1,0,-1,0,0.715800954345468
5,2,1,1,84,1,0,1,-1,0,-1,0,0,-1,0,-1,0.502270009990752
5,2,1,1,85,0,1,0,-1,-1,0,-1,0,0,-1,0,0.40146167484636
5,2,1,1,86,1,0,1,0,-1,-1,0,-1,0,0,-1,0.762614772957022
5,2,1,1,87,1,1,0,-1,0,-1,-1,0,-1,0,0,0.565576359924307
5,2,1,1,88,0,1,0,1,-1,0,-1,-0,0,-1,0,0.422655017493526
5,2,1,1,89,0,1,0,0,1,-1,0,-1,-0,0,-1,0.691055385064828
5,2,1,1,90,1,0,1,0,0,1,-1,-1,-1,-0,0,0.675291120187467
5,2,1,1,91,1,1,1,-1,0,0,1,0,-1,-1,-0,0.807157308787282
5,2,1,1,92,0,0,0,1,-1,0,0,-0,0,-1,-1,0.434587917650788
5,2,1,1,93,0,0,0,-0,1,-1,0,1,-0,0,-1,0.678038923288113
5,2,1,1,94,0,1,1,-0,-0,1,-1,1,1,-0,0,0.507065262663673
5,2,1,1,95,0,0,0,0,-0,-0,1,-1,1,1,-0,0.636691486084601
5,2,1,1,96,0,0,0,-0,0,-0,-0,1,-1,1,1,0.538333703796525
5,2,1,1,97,1,0,0,-0,-0,0,-0,1,1,-1,1,0.651844790369069
5,2,1,1,98,0,0,0,-1,-0,-0,0,0,1,1,-1,0.452251478465769
5,2,1,1,99,0,0,0,-0,-1,-0,-0,1,0,1,1,0.488635294037522
5,2,1,1,100,0,1,1,-0,-0,-1,-0,1,1,0,1,0.690874849213287
5,2,1,1,101,0,0,0,0,-0,-0,-1,-1,1,1,0,1.05863218640297
5,2,1,1,102,1,1,1,-0,0,-0,-0,1,-1,1,1,0.435256457698415
5,2,1,1,103,1,1,1,1,-0,0,-0,-0,1,-1,1,0.529260050527228
5,2,1,1,104,1,1,1,1,1,-0,0,-0,-0,1,-1,0.632176945360698
5,2,1,1,105,1,1,1,1,1,1,-0,-0,-0,-0,1,0.364984906253085
5,2,1,1,106,1,0,1,1,1,1,1,-0,-0,-0,-0,0.457485714905488
5,2,1,1,107,1,0,1,-1,1,1,1,0,-0,-0,-0,0.460625791696657
5,2,1,1,108,0,1,0,-1,-1,1,1,0,0,-0,-0,0.610794561303919
5,2,1,1,109,0,0,1,0,-1,-1,1,-1,0,0,-0,0.669728865577781
5,2,1,1,110,0,0,1,-0,0,-1,-1,1,-1,0,0,0.580079880237463
5,2,1,1,111,1,0,1,-0,-0,0,-1,1,1,-1,0,0.520791671540792
5,2,1,1,112,1,0,1,-1,-0,-0,0,0,1,1,-1,0.498368447817484
5,2,1,1,113,1,0,1,-1,-1,-0,-0,0,0,1,1,0.574862345161819
5,2,1,1,114,0,1,0,-1,-1,-1,-0,0,0,0,1,0.496446350869519
5,2,1,1,115,1,0,1,0,-1,-1,-1,-1,0,0,0,0.535169152219169
5,2,1,1,116,1,0,1,-1,0,-1,-1,0,-1,0,0,0.5543565419066
5,2,1,1,117,1,0,1,-1,-1,0,-1,0,0,-1,0,0.876498680092482
5,2,1,1,118,1,0,1,-1,-1,-1,0,0,0,0,-1,0.482463769996684
5,2,1,1,119,1,0,1,-1,-1,-1,-1,0,0,0,0,0.554746677673393
5,2,1,1,120,0,1,0,-1,-1,-1,-1,0,0,0,0,0.576204785757
5,2,1,1,121,1,0,1,0,-1,-1,-1,-1,0,0,0,0.606089582739514
5,2,1,1,122,0,0,1,-1,0,-1,-1,0,-1,0,0,0.583126930825529
5,2,1,1,123,1,0,1,-0,-1,0,-1,1,0,-1,0,0.807640756789624
5,2,1,1,124,1,0,1,-1,-0,-1,0,0,1,0,-1,0.539091272559745
5,2,1,1,125,0,1,0,-1,-1,-0,-1,0,0,1,0,0.609709996559104
5,2,1,1,126,0,0,0,0,-1,-1,-0,-1,0,0,1,0.637359910848318
5,2,1,1,127,1,1,1,-0,0,-1,-1,1,-1,0,0,0.71624905785211
5,2,1,1,128,0,0,0,1,-0,0,-1,-0,1,-1,0,0.609392471837054
5,2,1,1,129,0,0,0,-0,1,-0,0,1,-0,1,-1,0.483995971768309
5,2,1,1,130,0,1,1,-0,-0,1,-0,1,1,-0,1,0.637140013299359
5,2,1,1,131,1,1,1,0,-0,-0,1,-1,1,1,-0,0.949542328988173
5,2,1,1,132,1,1,1,1,0,-0,-0,-0,-1,1,1,0.392981156375754
5,2,1,1,133,0,0,0,1,1,0,-0,-0,-0,-1,1,0.387361142205918
5,2,1,1,134,0,1,1,-0,1,1,0,1,-0,-0,-1,0.330361578278826
5,2,1,1,135,0,0,0,0,-0,1,1,-1,1,-0,-0,1.01552759011247
5,2,1,1,136,0,0,0,-0,0,-0,1,1,-1,1,-0,0.443615615695307
5,2,1,1,137,1,1,1,-0,-0,0,-0,1,1,-1,1,0.582272494426434
5,2,1,1,138,1,0,0,1,-0,-0,0,-0,1,1,-1,0.386761571928218
5,2,1,1,139,0,0,0,-1,1,-0,-0,0,-0,1,1,0.351780968579988
5,2,1,1,140,0,0,0,-0,-1,1,-0,1,0,-0,1,0.502836085652234
5,2,1,1,141,0,1,1,-0,-0,-1,1,1,1,0,-0,0.54724013660234
5,2,1,1,142,1,0,0,0,-0,-0,-1,-1,1,1,0,0.847474449899892
5,2,1,1,143,0,0,0,-1,0,-0,-0,0,-1,1,1,0.373298402406363
5,2,1,1,144,1,1,1,-0,-1,0,-0,1,0,-1,1,0.546149564761436
5,2,1,1,145,0,1,1,1,-0,-1,0,-0,1,0,-1,0.478703422410035
5,2,1,1,146,1,0,0,0,1,-0,-1,-1,-0,1,0,0.675211562069308
5,2,1,1,147,0,0,0,-1,0,1,-0,0,-1,-0,1,0.43633875888554
5,2,1,1,148,0,0,0,-0,-1,0,1,1,0,-1,-0,0.3990674533743
5,2,1,1,149,0,0,0,-0,-0,-1,0,1,1,0,-1,0.656952989513229
5,2,1,1,150,1,1,1,-0,-0,-0,-1,1,1,1,0,0.622644119055622
5,2,1,1,151,1,1,1,1,-0,-0,-0,-0,1,1,1,0.459794847676676
5,2,1,1,152,1,1,1,1,1,-0,-0,-0,-0,1,1,0.401098324884515
5,2,1,1,153,1,1,1,1,1,1,-0,-0,-0,-0,1,0.344593606623675
5,2,1,1,154,1,1,1,1,1,1,1,-0,-0,-0,-0,0.416027185117855
5,2,1,1,155,1,1,1,1,1,1,1,-0,-0,-0,-0,0.429015715941205
5,2,1,1,156,1,1,1,1,1,1,1,-0,-0,-0,-0,0.545346060822339
5,2,1,1,157,1,1,1,1,1,1,1,-0,-0,-0,-0,0.474183798865852
5,2,1,1,158,1,1,1,1,1,1,1,-0,-0,-0,-0,0.475548313690524
5,2,1,1,159,1,1,1,1,1,1,1,-0,-0,-0,-0,0.56064824585701
5,2,1,1,160,1,1,1,1,1,1,1,-0,-0,-0,-0,0.441339544147922
6,2,1,1,1,1,0,0,NaN,NaN,NaN,NaN,NaN,NaN,NaN,NaN,1.25472855742555
6,2,1,1,2,0,0,0,-1,NaN,NaN,NaN,0,NaN,NaN,NaN,0.496643885329831
6,2,1,1,3,0,0,0,-0,-1,NaN,NaN,1,0,NaN,NaN,0.602813013945706
6,2,1,1,4,1,1,1,-0,-0,-1,NaN,1,1,0,NaN,0.52438948454801
6,2,1,1,5,1,1,1,1,-0,-0,-1,-0,1,1,0,0.520903088909108
6,2,1,1,6,1,1,1,1,1,-0,-0,-0,-0,1,1,0.659033889824059
6,2,1,1,7,1,1,1,1,1,1,-0,-0,-0,-0,1,0.553599541541189
6,2,1,1,8,0,1,1,1,1,1,1,-0,-0,-0,-0,0.514431827759836
6,2,1,1,9,1,0,0,0,1,1,1,-1,-0,-0,-0,0.463341591355857
6,2,1,1,10,0,0,0,-1,0,1,1,0,-1,-0,-0,0.616811283689458
6,2,1,1,11,0,0,0,-0,-1,0,1,1,0,-1,-0,0.650006434763782
6,2,1,1,12,1,1,1,-0,-0,-1,0,1,1,0,-1,0.443497782864142
6,2,1,1,13,1,1,1,1,-0,-0,-1,-0,1,1,0,0.480663442634977
6,2,1,1,14,1,1,1,1,1,-0,-0,-0,-0,1,1,0.445686149352696
6,2,1,1,15,1,1,1,1,1,1,-0,-0,-0,-0,1,0.656866778153926
6,2,1,1,16,1,1,1,1,1,1,1,-0,-0,-0,-0,0.611781496263575
6,2,1,1,17,1,1,1,1,1,1,1,-0,-0,-0,-0,0.515812397119589
6,2,1,1,18,0,1,1,1,1,1,1,-0,-0,-0,-0,0.662552697584033
6,2,1,1,19,1,1,1,0,1,1,1,-1,-0,-0,-0,0.431095648673363
6,2,1,1,20,1,1,1,1,0,1,1,-0,-1,-0,-0,0.390622249280568
6,2,1,1,21,0,0,0,1,1,0,1,-0,-0,-1,-0,0.421233035041951
6,2,1,1,22,1,1,1,-0,1,1,0,1,-0,-0,-1,0.558614372217562
6,2,1,1,23,1,1,1,1,-0,1,1,-0,1,-0,-0,0.561295101302676
6,2,1,1,24,1,1,1,1,1,-0,1,-0,-0,1,-0,0.53477295365883
6,2,1,1,25,0,1,1,1,1,1,-0,-0,-0,-0,1,0.580004266113974
6,2,1,1,26,1,1,1,0,1,1,1,-1,-0,-0,-0,0.517482509429101
6,2,1,1,27,1,1,1,1,0,1,1,-0,-1,-0,-0,0.621057563868817
6,2,1,1,28,0,1,1,1,1,0,1,-0,-0,-1,-0,0.474265614291653
6,2,1,1,29,1,1,1,0,1,1,0,-1,-0,-0,-1,0.55086055456195
6,2,1,1,30,0,1,1,1,0,1,1,-0,-1,-0,-0,0.560506451525725
6,2,1,1,31,1,1,1,0,1,0,1,-1,-0,-1,-0,0.549390240048524
6,2,1,1,32,0,0,0,1,0,1,0,-0,-1,-0,-1,0.569750254973769
6,2,1,1,33,1,1,1,-0,1,0,1,1,-0,-1,-0,0.690656149759889
6,2,1,1,34,1,1,1,1,-0,1,0,-0,1,-0,-1,0.593080840015318
6,2,1,1,35,1,1,1,1,1,-0,1,-0,-0,1,-0,0.559737660398241
6,2,1,1,36,1,1,1,1,1,1,-0,-0,-0,-0,1,0.562815266079269
6,2,1,1,37,1,1,1,1,1,1,1,-0,-0,-0,-0,0.521691134897992
6,2,1,1,38,1,1,1,1,1,1,1,-0,-0,-0,-0,0.514627547876444
6,2,1,1,39,1,1,1,1,1,1,1,-0,-0,-0,-0,0.566329267108813
6,2,1,1,40,1,1,1,1,1,1,1,-0,-0,-0,-0,0.555370351241436
6,2,1,1,41,0,1,1,1,1,1,1,-0,-0,-0,-0,0.609222333121579
6,2,1,1,42,1,1,1,0,1,1,1,-1,-0,-0,-0,0.508879350672942
6,2,1,1,43,1,1,1,1,0,1,1,-0,-1,-0,-0,0.583456440770533
6,2,1,1,44,0,1,1,1,1,0,1,-0,-0,-1,-0,0.58369256509468
6,2,1,1,45,1,1,1,0,1,1,0,-1,-0,-0,-1,0.525805167970248
6,2,1,1,46,1,1,1,1,0,1,1,-0,-1,-0,-0,0.5358253759332
6,2,1,1,47,1,1,1,1,1,0,1,-0,-0,-1,-0,0.511441920185462
6,2,1,1,48,1,1,1,1,1,1,0,-0,-0,-0,-1,0.589657358417753
6,2,1,1,49,1,1,1,1,1,1,1,-0,-0,-0,-0,0.51563702680869
6,2,1,1,50,1,1,1,1,1,1,1,-0,-0,-0,-0,0.483941174054053
6,2,1,1,51,1,1,1,1,1,1,1,-0,-0,-0,-0,0.58393276942661
6,2,1,1,52,1,1,1,1,1,1,1,-0,-0,-0,-0,0.510429120098706
6,2,1,1,53,0,1,1,1,1,1,1,-0,-0,-0,-0,0.488326840859372
6,2,1,1,54,0,1,1,0,1,1,1,-1,-0,-0,-0,0.661369474779349
6,2,1,1,55,1,1,1,0,0,1,1,-1,-1,-0,-0,0.601239864423405
6,2,1,1,56,0,1,0,1,0,0,1,-0,-1,-1,-0,0.493206795712467
6,2,1,1,57,0,1,0,0,1,0,0,-1,-0,-1,-1,0.673514453112148
6,2,1,1,58,1,0,1,0,0,1,0,-1,-1,-0,-1,0.574294308025856
6,2,1,1,59,0,0,1,-1,0,0,1,0,-1,-1,-0,0.555286963994149
6,2,1,1,60,1,0,1,-0,-1,0,0,1,0,-1,-1,0.569799863966182
6,2,1,1,61,0,0,1,-1,-0,-1,0,0,1,0,-1,0.504177996655926
6,2,1,1,62,0,0,1,-0,-1,-0,-1,1,0,1,0,0.5903657466406
6,2,1,1,63,1,0,1,-0,-0,-1,-0,1,1,0,1,0.525130116846412
6,2,1,1,64,0,1,0,-1,-0,-0,-1,0,1,1,0,0.709808935236651
6,2,1,1,65,0,0,1,0,-1,-0,-0,-1,0,1,1,0.543977643479593
6,2,1,1,66,1,0,1,-0,0,-1,-0,1,-1,0,1,0.418712591577787
6,2,1,1,67,1,0,1,-1,-0,0,-1,0,1,-1,0,0.440084215602838
6,2,1,1,68,0,1,0,-1,-1,-0,0,0,0,1,-1,0.543328523344826
6,2,1,1,69,1,0,1,0,-1,-1,-0,-1,0,0,1,0.525433308037464
6,2,1,1,70,1,0,1,-1,0,-1,-1,0,-1,0,0,0.506282557209488
6,2,1,1,71,0,0,0,-1,-1,0,-1,0,0,-1,0,0.555667913635261
6,2,1,1,72,0,0,0,-0,-1,-1,0,1,0,0,-1,0.813541648851242
6,2,1,1,73,0,0,0,-0,-0,-1,-1,1,1,0,0,0.472123571496923
6,2,1,1,74,0,0,0,-0,-0,-0,-1,1,1,1,0,0.462760272901505
6,2,1,1,75,1,1,1,-0,-0,-0,-0,1,1,1,1,0.397238320671022
6,2,1,1,76,1,1,1,1,-0,-0,-0,-0,1,1,1,0.461742267711088
6,2,1,1,77,0,1,1,1,1,-0,-0,-0,-0,1,1,0.583876255434006
6,2,1,1,78,1,0,0,0,1,1,-0,-1,-0,-0,1,0.476736994751263
6,2,1,1,79,0,1,1,-1,0,1,1,0,-1,-0,-0,0.662622035422828
6,2,1,1,80,0,0,0,0,-1,0,1,-1,0,-1,-0,0.541726563184056
6,2,1,1,81,0,0,0,-0,0,-1,0,1,-1,0,-1,0.793808890448418
6,2,1,1,82,1,1,1,-0,-0,0,-1,1,1,-1,0,0.52066805731738
6,2,1,1,83,1,1,1,1,-0,-0,0,-0,1,1,-1,0.647277322015725
6,2,1,1,84,1,1,1,1,1,-0,-0,-0,-0,1,1,0.518125925620552
6,2,1,1,85,1,1,1,1,1,1,-0,-0,-0,-0,1,0.465684727532789
6,2,1,1,86,1,1,1,1,1,1,1,-0,-0,-0,-0,0.606946371786762
6,2,1,1,87,1,1,1,1,1,1,1,-0,-0,-0,-0,0.562566034670454
6,2,1,1,88,1,1,1,1,1,1,1,-0,-0,-0,-0,0.467364415701013
6,2,1,1,89,1,1,1,1,1,1,1,-0,-0,-0,-0,0.525434691400733
6,2,1,1,90,1,1,1,1,1,1,1,-0,-0,-0,-0,0.532419437367935
6,2,1,1,91,0,1,0,1,1,1,1,-0,-0,-0,-0,0.50167569500627
6,2,1,1,92,0,1,0,0,1,1,1,-1,-0,-0,-0,0.47459347336553
6,2,1,1,93,1,1,0,0,0,1,1,-1,-1,-0,-0,0.426235342340078
6,2,1,1,94,0,1,0,1,0,0,1,-0,-1,-1,-0,0.5729008493945
6,2,1,1,95,0,1,0,0,1,0,0,-1,-0,-1,-1,0.561989274341613
6,2,1,1,96,0,1,0,0,0,1,0,-1,-1,-0,-1,0.43807609169744
6,2,1,1,97,0,0,1,0,0,0,1,-1,-1,-1,-0,0.492669662868138
6,2,1,1,98,1,0,1,-0,0,0,0,1,-1,-1,-1,0.451959434489254
6,2,1,1,99,1,0,1,-1,-0,0,0,0,1,-1,-1,0.600542606203817
6,2,1,1,100,0,0,1,-1,-1,-0,0,0,0,1,-1,0.488001913647167
6,2,1,1,101,1,0,1,-0,-1,-1,-0,1,0,0,1,0.487973243696615
6,2,1,1,102,1,0,1,-1,-0,-1,-1,0,1,0,0,0.523061672283802
6,2,1,1,103,0,0,1,-1,-1,-0,-1,0,0,1,0,0.484524883679114
6,2,1,1,104,1,0,1,-0,-1,-1,-0,1,0,0,1,0.838146051682997
6,2,1,1,105,1,0,1,-1,-0,-1,-1,0,1,0,0,0.547039568074979
6,2,1,1,106,0,0,0,-1,-1,-0,-1,0,0,1,0,0.580425725434907
6,2,1,1,107,1,0,0,-0,-1,-1,-0,1,0,0,1,0.476697294681799
6,2,1,1,108,0,0,0,-1,-0,-1,-1,0,1,0,0,0.517893936426844
6,2,1,1,109,0,0,0,-0,-1,-0,-1,1,0,1,0,0.509972602769267
6,2,1,1,110,0,0,0,-0,-0,-1,-0,1,1,0,1,0.561068102077115
6,2,1,1,111,1,1,1,-0,-0,-0,-1,1,1,1,0,0.675273794389796
6,2,1,1,112,1,1,1,1,-0,-0,-0,-0,1,1,1,0.475039397366345
6,2,1,1,113,1,1,1,1,1,-0,-0,-0,-0,1,1,0.527487492654473
6,2,1,1,114,1,1,1,1,1,1,-0,-0,-0,-0,1,0.683447892835829
6,2,1,1,115,0,0,0,1,1,1,1,-0,-0,-0,-0,0.638203633541707
6,2,1,1,116,1,1,1,-0,1,1,1,1,-0,-0,-0,0.511565403139684
6,2,1,1,117,1,1,1,1,-0,1,1,-0,1,-0,-0,0.574273095990065
6,2,1,1,118,1,1,1,1,1,-0,1,-0,-0,1,-0,0.491274978616275
6,2,1,1,119,1,1,1,1,1,1,-0,-0,-0,-0,1,0.62369393411791
6,2,1,1,120,1,1,1,1,1,1,1,-0,-0,-0,-0,0.608571777120233
6,2,1,1,121,0,1,1,1,1,1,1,-0,-0,-0,-0,0.544700857775752
6,2,1,1,122,1,1,1,0,1,1,1,-1,-0,-0,-0,0.479827529576141
6,2,1,1,123,1,1,1,1,0,1,1,-0,-1,-0,-0,0.535611034778412
6,2,1,1,124,1,1,1,1,1,0,1,-0,-0,-1,-0,0.562988603720441
6,2,1,1,125,1,1,1,1,1,1,0,-0,-0,-0,-1,0.498692992841825
6,2,1,1,126,1,1,0,1,1,1,1,-0,-0,-0,-0,0.608505090815015
6,2,1,1,127,0,1,0,1,1,1,1,-0,-0,-0,-0,0.789208601810969
6,2,1,1,128,0,1,0,0,1,1,1,-1,-0,-0,-0,0.478784924023785
6,2,1,1,129,1,0,1,0,0,1,1,-1,-1,-0,-0,0.435925939294975
6,2,1,1,130,1,0,1,-1,0,0,1,0,-1,-1,-0,0.466139074531384
6,2,1,1,131,1,0,1,-1,-1,0,0,0,0,-1,-1,0.473498915671371
6,2,1,1,132,1,0,1,-1,-1,-1,0,0,0,0,-1,0.472290586214513
6,2,1,1,133,1,0,1,-1,-1,-1,-1,0,0,0,0,0.531988793169148
6,2,1,1,134,1,0,1,-1,-1,-1,-1,0,0,0,0,0.479899646132253
6,2,1,1,135,1,0,1,-1,-1,-1,-1,0,0,0,0,0.524690302554518
6,2,1,1,136,1,0,1,-1,-1,-1,-1,0,0,0,0,0.567942417052109
6,2,1,1,137,1,0,1,-1,-1,-1,-1,0,0,0,0,0.488419566012453
6,2,1,1,138,1,0,1,-1,-1,-1,-1,0,0,0,0,0.656894937274046
6,2,1,1,139,1,0,1,-1,-1,-1,-1,0,0,0,0,0.621715926390607
6,2,1,1,140,0,0,1,-1,-1,-1,-1,0,0,0,0,0.492838517180644
6,2,1,1,141,0,0,1,-0,-1,-1,-1,1,0,0,0,0.472867426462471
6,2,1,1,142,0,1,0,-0,-0,-1,-1,1,1,0,0,0.61703916505212
6,2,1,1,143,1,1,0,0,-0,-0,-1,-1,1,1,0,0.473442093934864
6,2,1,1,144,1,1,0,1,0,-0,-0,-0,-1,1,1,0.421158905839548
6,2,1,1,145,0,1,0,1,1,0,-0,-0,-0,-1,1,0.510340615641326
6,2,1,1,146,0,1,0,0,1,1,0,-1,-0,-0,-1,0.459873683459591
6,2,1,1,147,1,0,1,0,0,1,1,-1,-1,-0,-0,0.469412993872538
6,2,1,1,148,0,0,1,-1,0,0,1,0,-1,-1,-0,0.916745925962459
6,2,1,1,149,0,1,0,-0,-1,0,0,1,0,-1,-1,0.605321653478313
6,2,1,1,150,1,1,0,0,-0,-1,0,-1,1,0,-1,0.789588847022969
6,2,1,1,151,0,1,0,1,0,-0,-1,-0,-1,1,0,0.468493986874819
6,2,1,1,152,1,0,1,0,1,0,-0,-1,-0,-1,1,0.564567988505587
6,2,1,1,153,1,0,1,-1,0,1,0,0,-1,-0,-1,0.482842814351898
6,2,1,1,154,1,0,1,-1,-1,0,1,0,0,-1,-0,0.513252018310595
6,2,1,1,155,1,0,1,-1,-1,-1,0,0,0,0,-1,0.590074306295719
6,2,1,1,156,1,0,1,-1,-1,-1,-1,0,0,0,0,0.468359670077916
6,2,1,1,157,0,0,1,-1,-1,-1,-1,0,0,0,0,0.47677653178107
6,2,1,1,158,1,0,1,-0,-1,-1,-1,1,0,0,0,0.428370332578197
6,2,1,1,159,0,0,1,-1,-0,-1,-1,0,1,0,0,0.414351269137114
6,2,1,1,160,1,0,1,-0,-1,-0,-1,1,0,1,0,0.541553456103429
7,2,1,1,1,0,1,0,NaN,NaN,NaN,NaN,NaN,NaN,NaN,NaN,0.765695211315688
7,2,1,1,2,1,0,1,0,NaN,NaN,NaN,-1,NaN,NaN,NaN,0.832913087934685
7,2,1,1,3,1,0,1,-1,0,NaN,NaN,0,-1,NaN,NaN,0.732319321811701
7,2,1,1,4,1,0,1,-1,-1,0,NaN,0,0,-1,NaN,0.744990248874274
7,2,1,1,5,1,0,1,-1,-1,-1,0,0,0,0,-1,0.55354979416461
7,2,1,1,6,1,0,1,-1,-1,-1,-1,0,0,0,0,0.824986269163674
7,2,1,1,7,1,0,1,-1,-1,-1,-1,0,0,0,0,0.853197995442315
7,2,1,1,8,1,0,1,-1,-1,-1,-1,0,0,0,0,0.654973587887071
7,2,1,1,9,0,0,1,-1,-1,-1,-1,0,0,0,0,0.551485128714376
7,2,1,1,10,1,0,1,-0,-1,-1,-1,1,0,0,0,0.771533657122745
7,2,1,1,11,1,0,1,-1,-0,-1,-1,0,1,0,0,0.840830789459687
7,2,1,1,12,0,0,1,-1,-1,-0,-1,0,0,1,0,0.648072968041561
7,2,1,1,13,1,0,1,-0,-1,-1,-0,1,0,0,1,0.675878483499218
7,2,1,1,14,1,0,1,-1,-0,-1,-1,0,1,0,0,0.534817687491341
7,2,1,1,15,1,0,1,-1,-1,-0,-1,0,0,1,0,0.529590851678222
7,2,1,1,16,1,0,1,-1,-1,-1,-0,0,0,0,1,0.550148667749454
7,2,1,1,17,0,1,0,-1,-1,-1,-1,0,0,0,0,0.903909263603055
7,2,1,1,18,1,0,1,0,-1,-1,-1,-1,0,0,0,0.840225041433769
7,2,1,1,19,1,0,1,-1,0,-1,-1,0,-1,0,0,0.54110777563892
7,2,1,1,20,1,0,1,-1,-1,0,-1,0,0,-1,0,0.596514605637822
7,2,1,1,21,1,0,1,-1,-1,-1,0,0,0,0,-1,0.519491589479003
7,2,1,1,22,1,0,1,-1,-1,-1,-1,0,0,0,0,0.566704674405628
7,2,1,1,23,0,0,1,-1,-1,-1,-1,0,0,0,0,0.608499333373402
7,2,1,1,24,0,1,0,-0,-1,-1,-1,1,0,0,0,0.649195141144446
7,2,1,1,25,0,0,1,0,-0,-1,-1,-1,1,0,0,0.658168613750604
7,2,1,1,26,1,0,1,-0,0,-0,-1,1,-1,1,0,0.560226760629121
7,2,1,1,27,1,0,1,-1,-0,0,-0,0,1,-1,1,0.658043122552044
7,2,1,1,28,1,0,1,-1,-1,-0,0,0,0,1,-1,0.778178029391711
7,2,1,1,29,1,0,1,-1,-1,-1,-0,0,0,0,1,0.550328225871453
7,2,1,1,30,0,0,1,-1,-1,-1,-1,0,0,0,0,0.606493110857627
7,2,1,1,31,1,0,1,-0,-1,-1,-1,1,0,0,0,0.60444130445012
7,2,1,1,32,1,0,1,-1,-0,-1,-1,0,1,0,0,0.517277283905969
7,2,1,1,33,1,0,1,-1,-1,-0,-1,0,0,1,0,0.498444136359467
7,2,1,1,34,1,0,1,-1,-1,-1,-0,0,0,0,1,0.571755864308216
7,2,1,1,35,1,0,1,-1,-1,-1,-1,0,0,0,0,0.464844505593646
7,2,1,1,36,1,0,1,-1,-1,-1,-1,0,0,0,0,0.564692471964918
7,2,1,1,37,1,0,1,-1,-1,-1,-1,0,0,0,0,0.526177625740274
7,2,1,1,38,1,0,1,-1,-1,-1,-1,0,0,0,0,0.611237416963377
7,2,1,1,39,1,0,1,-1,-1,-1,-1,0,0,0,0,0.554988973094623
7,2,1,1,40,1,0,1,-1,-1,-1,-1,0,0,0,0,0.553733103773084
7,2,1,1,41,1,0,1,-1,-1,-1,-1,0,0,0,0,0.592239782737124
7,2,1,1,42,0,0,1,-1,-1,-1,-1,0,0,0,0,0.586958180627335
7,2,1,1,43,0,0,1,-0,-1,-1,-1,1,0,0,0,0.747656246240695
7,2,1,1,44,0,1,0,-0,-0,-1,-1,1,1,0,0,0.707688129034977
7,2,1,1,45,1,0,1,0,-0,-0,-1,-1,1,1,0,0.807786511755694
7,2,1,1,46,1,0,1,-1,0,-0,-0,0,-1,1,1,0.763254450859677
7,2,1,1,47,1,0,1,-1,-1,0,-0,0,0,-1,1,0.521390921515376
7,2,1,1,48,0,0,1,-1,-1,-1,0,0,0,0,-1,0.630867346325431
7,2,1,1,49,1,0,1,-0,-1,-1,-1,1,0,0,0,0.587703308406162
7,2,1,1,50,0,0,1,-1,-0,-1,-1,0,1,0,0,0.563961348022531
7,2,1,1,51,1,0,1,-0,-1,-0,-1,1,0,1,0,0.654819782602317
7,2,1,1,52,0,1,0,-1,-0,-1,-0,0,1,0,1,0.562851838485585
7,2,1,1,53,1,0,1,0,-1,-0,-1,-1,0,1,0,0.524525625191927
7,2,1,1,54,1,0,1,-1,0,-1,-0,0,-1,0,1,0.622653762848131
7,2,1,1,55,1,0,1,-1,-1,0,-1,0,0,-1,0,0.580242185933457
7,2,1,1,56,1,0,0,-1,-1,-1,0,0,0,0,-1,0.587095284828138
7,2,1,1,57,0,0,0,-1,-1,-1,-1,0,0,0,0,0.534137502840167
7,2,1,1,58,0,0,0,-0,-1,-1,-1,1,0,0,0,0.593500834369479
7,2,1,1,59,0,0,0,-0,-0,-1,-1,1,1,0,0,0.543338290428437
7,2,1,1,60,0,0,0,-0,-0,-0,-1,1,1,1,0,0.654895818129262
7,2,1,1,61,1,1,1,-0,-0,-0,-0,1,1,1,1,0.802225264645131
7,2,1,1,62,1,1,1,1,-0,-0,-0,-0,1,1,1,0.586884262601416
7,2,1,1,63,1,1,1,1,1,-0,-0,-0,-0,1,1,0.674594776253798
7,2,1,1,64,1,1,1,1,1,1,-0,-0,-0,-0,1,0.652958666813902
7,2,1,1,65,1,1,1,1,1,1,1,-0,-0,-0,-0,0.644258595973952
7,2,1,1,66,1,1,1,1,1,1,1,-0,-0,-0,-0,0.617405146223973
7,2,1,1,67,1,1,1,1,1,1,1,-0,-0,-0,-0,0.897876837148942
7,2,1,1,68,1,1,1,1,1,1,1,-0,-0,-0,-0,0.674870654396727
7,2,1,1,69,1,1,1,1,1,1,1,-0,-0,-0,-0,0.576241429086622
7,2,1,1,70,1,1,1,1,1,1,1,-0,-0,-0,-0,0.682381177405659
7,2,1,1,71,0,1,0,1,1,1,1,-0,-0,-0,-0,0.587875177767273
7,2,1,1,72,0,1,0,0,1,1,1,-1,-0,-0,-0,0.674986078698566
7,2,1,1,73,1,0,1,0,0,1,1,-1,-1,-0,-0,0.7706840417286
7,2,1,1,74,1,0,1,-1,0,0,1,0,-1,-1,-0,0.618604770639649
7,2,1,1,75,1,0,1,-1,-1,0,0,0,0,-1,-1,0.595561485023609
7,2,1,1,76,1,0,1,-1,-1,-1,0,0,0,0,-1,0.641911634387725
7,2,1,1,77,1,0,1,-1,-1,-1,-1,0,0,0,0,0.705253488511516
7,2,1,1,78,1,0,1,-1,-1,-1,-1,0,0,0,0,0.608724715639255
7,2,1,1,79,0,0,1,-1,-1,-1,-1,0,0,0,0,0.689062735407788
7,2,1,1,80,0,0,1,-0,-1,-1,-1,1,0,0,0,0.64596118028021
7,2,1,1,81,0,1,0,-0,-0,-1,-1,1,1,0,0,0.713077183327187
7,2,1,1,82,0,1,0,0,-0,-0,-1,-1,1,1,0,0.639142249755423
7,2,1,1,83,1,0,1,0,0,-0,-0,-1,-1,1,1,0.694446256198717
7,2,1,1,84,1,0,1,-1,0,0,-0,0,-1,-1,1,0.470560354932786
7,2,1,1,85,1,0,1,-1,-1,0,0,0,0,-1,-1,0.475432658019599
7,2,1,1,86,0,0,1,-1,-1,-1,0,0,0,0,-1,0.516064860927145
7,2,1,1,87,1,0,1,-0,-1,-1,-1,1,0,0,0,0.844872481521634
7,2,1,1,88,1,0,1,-1,-0,-1,-1,0,1,0,0,0.662318081117519
7,2,1,1,89,0,0,1,-1,-1,-0,-1,0,0,1,0,0.552694063515446
7,2,1,1,90,1,0,1,-0,-1,-1,-0,1,0,0,1,0.80821480913437
7,2,1,1,91,0,0,0,-1,-0,-1,-1,0,1,0,0,0.603222901212575
7,2,1,1,92,0,0,0,-0,-1,-0,-1,1,0,1,0,0
7,2,1,1,93,0,0,0,NaN,-0,-1,-0,NaN,1,0,1,0.585524522502055
7,2,1,1,94,1,1,1,-0,NaN,-0,-1,1,NaN,1,0,0.808868085461654
7,2,1,1,95,1,1,1,1,-0,NaN,-0,-0,1,NaN,1,0.705416140382113
7,2,1,1,96,1,1,1,1,1,-0,NaN,-0,-0,1,NaN,0.76719128406603
7,2,1,1,97,0,1,1,1,1,1,-0,-0,-0,-0,1,0.801502814534615
7,2,1,1,98,1,1,1,0,1,1,1,-1,-0,-0,-0,1.0456272454785
7,2,1,1,99,1,1,1,1,0,1,1,-0,-1,-0,-0,0.711606479810143
7,2,1,1,100,1,1,1,1,1,0,1,-0,-0,-1,-0,0.606335353261784
7,2,1,1,101,1,1,1,1,1,1,0,-0,-0,-0,-1,0.637665065092733
7,2,1,1,102,0,0,0,1,1,1,1,-0,-0,-0,-0,0.648013788643766
7,2,1,1,103,1,1,1,-0,1,1,1,1,-0,-0,-0,0.885561495048023
7,2,1,1,104,1,1,1,1,-0,1,1,-0,1,-0,-0,0.776601878584188
7,2,1,1,105,1,1,1,1,1,-0,1,-0,-0,1,-0,0.707798014488617
7,2,1,1,106,0,1,0,1,1,1,-0,-0,-0,-0,1,0.668471062057506
7,2,1,1,107,0,1,0,0,1,1,1,-1,-0,-0,-0,1.10754536803142
7,2,1,1,108,0,1,0,0,0,1,1,-1,-1,-0,-0,0.76253583477046
7,2,1,1,109,1,0,1,0,0,0,1,-1,-1,-1,-0,0.724574724995364
7,2,1,1,110,0,0,1,-1,0,0,0,0,-1,-1,-1,0.542026760295812
7,2,1,1,111,0,1,0,-0,-1,0,0,1,0,-1,-1,0.82468450018041
7,2,1,1,112,1,0,1,0,-0,-1,0,-1,1,0,-1,0.769305362417072
7,2,1,1,113,1,0,1,-1,0,-0,-1,0,-1,1,0,0.542602291925505
7,2,1,1,114,1,0,1,-1,-1,0,-0,0,0,-1,1,0.631607063902266
7,2,1,1,115,1,0,1,-1,-1,-1,0,0,0,0,-1,0.621157812395722
7,2,1,1,116,1,0,1,-1,-1,-1,-1,0,0,0,0,0.540358665142776
7,2,1,1,117,1,0,1,-1,-1,-1,-1,0,0,0,0,0.51909089912715
7,2,1,1,118,1,0,1,-1,-1,-1,-1,0,0,0,0,0.525287955278145
7,2,1,1,119,1,0,1,-1,-1,-1,-1,0,0,0,0,0.658352575283061
7,2,1,1,120,1,0,1,-1,-1,-1,-1,0,0,0,0,0.574828471470028
7,2,1,1,121,1,0,1,-1,-1,-1,-1,0,0,0,0,0.560059071468459
7,2,1,1,122,1,0,1,-1,-1,-1,-1,0,0,0,0,0.528813983787586
7,2,1,1,123,1,0,1,-1,-1,-1,-1,0,0,0,0,0.643106291685399
7,2,1,1,124,0,0,1,-1,-1,-1,-1,0,0,0,0,0.553307816070628
7,2,1,1,125,1,0,1,-0,-1,-1,-1,1,0,0,0,0.584947020730397
7,2,1,1,126,0,0,0,-1,-0,-1,-1,0,1,0,0,0.551240085809695
7,2,1,1,127,0,0,0,-0,-1,-0,-1,1,0,1,0,0.944031391595672
7,2,1,1,128,0,1,1,-0,-0,-1,-0,1,1,0,1,0.541860637288664
7,2,1,1,129,1,1,1,0,-0,-0,-1,-1,1,1,0,0.528286676824791
7,2,1,1,130,1,1,1,1,0,-0,-0,-0,-1,1,1,0.848160794672367
7,2,1,1,131,0,1,1,1,1,0,-0,-0,-0,-1,1,0.981162308699822
7,2,1,1,132,0,0,0,0,1,1,0,-1,-0,-0,-1,0.963969154737242
7,2,1,1,133,0,1,1,-0,0,1,1,1,-1,-0,-0,0.78813152091152
7,2,1,1,134,1,1,1,0,-0,0,1,-1,1,-1,-0,1.06339456006026
7,2,1,1,135,1,1,1,1,0,-0,0,-0,-1,1,-1,0.819385949383104
7,2,1,1,136,1,1,1,1,1,0,-0,-0,-0,-1,1,0.64906049527599
7,2,1,1,137,1,1,1,1,1,1,0,-0,-0,-0,-1,0.645526249048089
7,2,1,1,138,1,1,1,1,1,1,1,-0,-0,-0,-0,0.867422420707044
7,2,1,1,139,1,1,1,1,1,1,1,-0,-0,-0,-0,0.812067597605164
7,2,1,1,140,1,1,1,1,1,1,1,-0,-0,-0,-0,0.679167450913155
7,2,1,1,141,1,1,1,1,1,1,1,-0,-0,-0,-0,0.756124112836005
7,2,1,1,142,1,1,1,1,1,1,1,-0,-0,-0,-0,0.704308382452837
7,2,1,1,143,0,1,1,1,1,1,1,-0,-0,-0,-0,0.68464756238518
7,2,1,1,144,0,0,0,0,1,1,1,-1,-0,-0,-0,0.788464661106445
7,2,1,1,145,1,1,1,-0,0,1,1,1,-1,-0,-0,0.754126473595534
7,2,1,1,146,0,1,1,1,-0,0,1,-0,1,-1,-0,0.733283677172039
7,2,1,1,147,0,1,1,0,1,-0,0,-1,-0,1,-1,0.757683715933126
7,2,1,1,148,1,1,1,0,0,1,-0,-1,-1,-0,1,0.829883666145179
7,2,1,1,149,1,1,1,1,0,0,1,-0,-1,-1,-0,0.699843986994892
7,2,1,1,150,1,1,1,1,1,0,0,-0,-0,-1,-1,0.587198875255126
7,2,1,1,151,1,1,1,1,1,1,0,-0,-0,-0,-1,0.553103492521586
7,2,1,1,152,1,1,1,1,1,1,1,-0,-0,-0,-0,0.563269790956838
7,2,1,1,153,1,1,1,1,1,1,1,-0,-0,-0,-0,0.652740577007535
7,2,1,1,154,1,1,1,1,1,1,1,-0,-0,-0,-0,0.576477199366309
7,2,1,1,155,0,1,1,1,1,1,1,-0,-0,-0,-0,0.67585991586111
7,2,1,1,156,0,1,1,0,1,1,1,-1,-0,-0,-0,0.852734960637463
7,2,1,1,157,0,0,0,0,0,1,1,-1,-1,-0,-0,0.610760986807691
7,2,1,1,158,1,0,0,-0,0,0,1,1,-1,-1,-0,0.619175625860407
7,2,1,1,159,0,0,0,-1,-0,0,0,0,1,-1,-1,0.571420889303226
7,2,1,1,160,1,1,1,-0,-1,-0,0,1,0,1,-1,0.586208802143119
8,2,1,1,1,0,0,0,NaN,NaN,NaN,NaN,NaN,NaN,NaN,NaN,0
8,2,1,1,2,0,1,0,NaN,NaN,NaN,NaN,NaN,NaN,NaN,NaN,0.377488501944754
8,2,1,1,3,1,0,1,0,NaN,NaN,NaN,-1,NaN,NaN,NaN,0.901027687557871
8,2,1,1,4,1,0,1,-1,0,NaN,NaN,0,-1,NaN,NaN,0.644183720945875
8,2,1,1,5,1,0,1,-1,-1,0,NaN,0,0,-1,NaN,0.669855154243123
8,2,1,1,6,1,0,1,-1,-1,-1,0,0,0,0,-1,0.763013117004448
8,2,1,1,7,1,0,1,-1,-1,-1,-1,0,0,0,0,0.596082819412914
8,2,1,1,8,0,0,1,-1,-1,-1,-1,0,0,0,0,0.733673550797903
8,2,1,1,9,1,0,1,-0,-1,-1,-1,1,0,0,0,0.60145389984973
8,2,1,1,10,1,1,0,-1,-0,-1,-1,0,1,0,0,0.64884939251715
8,2,1,1,11,0,1,0,1,-1,-0,-1,-0,0,1,0,0.661825752504228
8,2,1,1,12,0,1,0,0,1,-1,-0,-1,-0,0,1,0.796946747397669
8,2,1,1,13,0,1,0,0,0,1,-1,-1,-1,-0,0,0.595491772590321
8,2,1,1,14,1,0,1,0,0,0,1,-1,-1,-1,-0,0.778063374635167
8,2,1,1,15,0,1,0,-1,0,0,0,0,-1,-1,-1,0.700062946256367
8,2,1,1,16,1,0,1,0,-1,0,0,-1,0,-1,-1,0.519595653395299
8,2,1,1,17,1,0,1,-1,0,-1,0,0,-1,0,-1,0.50129368425587
8,2,1,1,18,1,0,1,-1,-1,0,-1,0,0,-1,0,0.403100520270527
8,2,1,1,19,0,1,0,-1,-1,-1,0,0,0,0,-1,0.549909799912712
8,2,1,1,20,1,0,1,0,-1,-1,-1,-1,0,0,0,0.50568496865526
8,2,1,1,21,0,1,0,-1,0,-1,-1,0,-1,0,0,0.600316624897459
8,2,1,1,22,0,1,0,0,-1,0,-1,-1,0,-1,0,0.537234840343444
8,2,1,1,23,0,1,0,0,0,-1,0,-1,-1,0,-1,0.637880320315162
8,2,1,1,24,0,0,1,0,0,0,-1,-1,-1,-1,0,0.445124757074154
8,2,1,1,25,1,0,1,-0,0,0,0,1,-1,-1,-1,0.575432647994603
8,2,1,1,26,1,0,1,-1,-0,0,0,0,1,-1,-1,0.652802147240436
8,2,1,1,27,1,0,1,-1,-1,-0,0,0,0,1,-1,0.664539265808344
8,2,1,1,28,0,0,1,-1,-1,-1,-0,0,0,0,1,0.811375132656394
8,2,1,1,29,1,0,1,-0,-1,-1,-1,1,0,0,0,0.723749140570362
8,2,1,1,30,1,0,1,-1,-0,-1,-1,0,1,0,0,0.886909774852029
8,2,1,1,31,1,1,0,-1,-1,-0,-1,0,0,1,0,0.90265709832056
8,2,1,1,32,0,0,1,1,-1,-1,-0,-0,0,0,1,0.644775677652433
8,2,1,1,33,0,1,0,-0,1,-1,-1,1,-0,0,0,0.519666796984893
8,2,1,1,34,1,1,0,0,-0,1,-1,-1,1,-0,0,0.846586581257725
8,2,1,1,35,1,0,1,1,0,-0,1,-0,-1,1,-0,0.643002102797254
8,2,1,1,36,1,0,1,-1,1,0,-0,0,-0,-1,1,0.624509420318645
8,2,1,1,37,0,0,1,-1,-1,1,0,0,0,-0,-1,0.606876448533512
8,2,1,1,38,0,1,0,-0,-1,-1,1,1,0,0,-0,0.464040175360424
8,2,1,1,39,1,0,1,0,-0,-1,-1,-1,1,0,0,0.626635154776523
8,2,1,1,40,1,0,1,-1,0,-0,-1,0,-1,1,0,0.54165266984819
8,2,1,1,41,0,1,0,-1,-1,0,-0,0,0,-1,1,0.586879505994148
8,2,1,1,42,0,1,0,0,-1,-1,0,-1,0,0,-1,0.585136826523012
8,2,1,1,43,1,0,1,0,0,-1,-1,-1,-1,0,0,0.510058332331027
8,2,1,1,44,1,0,1,-1,0,0,-1,0,-1,-1,0,0.536025800285643
8,2,1,1,45,1,0,1,-1,-1,0,0,0,0,-1,-1,0.795603116603161
8,2,1,1,46,1,0,1,-1,-1,-1,0,0,0,0,-1,0.609817750311777
8,2,1,1,47,1,0,1,-1,-1,-1,-1,0,0,0,0,0.545703912546742
8,2,1,1,48,0,0,1,-1,-1,-1,-1,0,0,0,0,0.542365304008854
8,2,1,1,49,0,1,0,-0,-1,-1,-1,1,0,0,0,0.789711576246191
8,2,1,1,50,1,0,1,0,-0,-1,-1,-1,1,0,0,0.577020750632073
8,2,1,1,51,0,1,0,-1,0,-0,-1,0,-1,1,0,0.552632077267845
8,2,1,1,52,1,0,1,0,-1,0,-0,-1,0,-1,1,0.611590811578935
8,2,1,1,53,1,0,1,-1,0,-1,0,0,-1,0,-1,0.53243309174286
8,2,1,1,54,1,0,1,-1,-1,0,-1,0,0,-1,0,0.475551410441767
8,2,1,1,55,0,1,0,-1,-1,-1,0,0,0,0,-1,0.573093347768008
8,2,1,1,56,0,0,0,0,-1,-1,-1,-1,0,0,0,0.516450474156954
8,2,1,1,57,1,1,1,-0,0,-1,-1,1,-1,0,0,0.58765934881194
8,2,1,1,58,0,0,0,1,-0,0,-1,-0,1,-1,0,0
8,2,1,1,59,0,1,1,NaN,1,-0,0,NaN,-0,1,-1,0.557238659663199
8,2,1,1,60,0,1,1,0,NaN,1,-0,-1,NaN,-0,1,0.560658013218926
8,2,1,1,61,1,1,1,0,0,NaN,1,-1,-1,NaN,-0,0.533482963430288
8,2,1,1,62,1,1,1,1,0,0,NaN,-0,-1,-1,NaN,0.522955489059314
8,2,1,1,63,0,1,1,1,1,0,0,-0,-0,-1,-1,0.646243995348414
8,2,1,1,64,0,0,0,0,1,1,0,-1,-0,-0,-1,0.559071842630146
8,2,1,1,65,0,0,0,-0,0,1,1,1,-1,-0,-0,0.449943409252228
8,2,1,1,66,0,1,1,-0,-0,0,1,1,1,-1,-0,0.486319479530721
8,2,1,1,67,1,1,1,0,-0,-0,0,-1,1,1,-1,0.43049079487173
8,2,1,1,68,0,0,0,1,0,-0,-0,-0,-1,1,1,0.532162709343538
8,2,1,1,69,1,1,1,-0,1,0,-0,1,-0,-1,1,0.559820960477737
8,2,1,1,70,0,0,0,1,-0,1,0,-0,1,-0,-1,0.642244777256565
8,2,1,1,71,1,0,1,-0,1,-0,1,1,-0,1,-0,0.726963488579713
8,2,1,1,72,0,1,0,-1,-0,1,-0,0,1,-0,1,0.502101319552821
8,2,1,1,73,1,1,0,0,-1,-0,1,-1,0,1,-0,0.498802768755922
8,2,1,1,74,0,1,0,1,0,-1,-0,-0,-1,0,1,0.627415235841909
8,2,1,1,75,0,1,0,0,1,0,-1,-1,-0,-1,0,0.460331949958345
8,2,1,1,76,0,1,0,0,0,1,0,-1,-1,-0,-1,0.468782616917451
8,2,1,1,77,1,0,1,0,0,0,1,-1,-1,-1,-0,0.525697564724396
8,2,1,1,78,1,0,1,-1,0,0,0,0,-1,-1,-1,0.492479610247756
8,2,1,1,79,0,1,0,-1,-1,0,0,0,0,-1,-1,0.490901191240482
8,2,1,1,80,1,1,0,0,-1,-1,0,-1,0,0,-1,0.480841974416762
8,2,1,1,81,1,0,1,1,0,-1,-1,-0,-1,0,0,0.55822328481554
8,2,1,1,82,0,1,0,-1,1,0,-1,0,-0,-1,0,0.662472415358934
8,2,1,1,83,1,0,1,0,-1,1,0,-1,0,-0,-1,0.412435720823851
8,2,1,1,84,0,1,0,-1,0,-1,1,0,-1,0,-0,0.610863035806688
8,2,1,1,85,0,1,0,0,-1,0,-1,-1,0,-1,0,0.453169919604989
8,2,1,1,86,1,1,0,0,0,-1,0,-1,-1,0,-1,0.528197632223964
8,2,1,1,87,1,0,1,1,0,0,-1,-0,-1,-1,0,0.454581937261537
8,2,1,1,88,1,0,1,-1,1,0,0,0,-0,-1,-1,0.454817522420853
8,2,1,1,89,1,1,0,-1,-1,1,0,0,0,-0,-1,0.486776474597718
8,2,1,1,90,0,1,0,1,-1,-1,1,-0,0,0,-0,0.593663135383395
8,2,1,1,91,0,0,0,0,1,-1,-1,-1,-0,0,0,0.583508159910707
8,2,1,1,92,1,1,1,-0,0,1,-1,1,-1,-0,0,0.468750190464561
8,2,1,1,93,0,0,0,1,-0,0,1,-0,1,-1,-0,0.369442900677313
8,2,1,1,94,1,1,1,-0,1,-0,0,1,-0,1,-1,0.45795993991851
8,2,1,1,95,0,0,0,1,-0,1,-0,-0,1,-0,1,0.560246416256632
8,2,1,1,96,0,0,0,-0,1,-0,1,1,-0,1,-0,0.588771021291905
8,2,1,1,97,0,0,0,-0,-0,1,-0,1,1,-0,1,0.525655010893388
8,2,1,1,98,0,0,0,-0,-0,-0,1,1,1,1,-0,0.562910919978094
8,2,1,1,99,0,0,0,-0,-0,-0,-0,1,1,1,1,0.494764615661552
8,2,1,1,100,0,0,0,-0,-0,-0,-0,1,1,1,1,0.536780709931918
8,2,1,1,101,1,1,1,-0,-0,-0,-0,1,1,1,1,0.534955586630531
8,2,1,1,102,0,0,0,1,-0,-0,-0,-0,1,1,1,0.393520883289966
8,2,1,1,103,0,0,0,-0,1,-0,-0,1,-0,1,1,0.544986386783421
8,2,1,1,104,1,1,1,-0,-0,1,-0,1,1,-0,1,0.413572504578042
8,2,1,1,105,0,1,1,1,-0,-0,1,-0,1,1,-0,0.479762663231668
8,2,1,1,106,0,1,0,0,1,-0,-0,-1,-0,1,1,0.434526680099225
8,2,1,1,107,1,0,1,0,0,1,-0,-1,-1,-0,1,0.904390921181403
8,2,1,1,108,1,0,1,-1,0,0,1,0,-1,-1,-0,0.645831160698435
8,2,1,1,109,1,0,1,-1,-1,0,0,0,0,-1,-1,0.633078772203589
8,2,1,1,110,1,0,1,-1,-1,-1,0,0,0,0,-1,0.648752125185638
8,2,1,1,111,1,0,1,-1,-1,-1,-1,0,0,0,0,0.613058262159029
8,2,1,1,112,0,0,1,-1,-1,-1,-1,0,0,0,0,0.768682044188608
8,2,1,1,113,1,0,1,-0,-1,-1,-1,1,0,0,0,0.581566371947702
8,2,1,1,114,1,0,1,-1,-0,-1,-1,0,1,0,0,0.627579917665571
8,2,1,1,115,1,0,1,-1,-1,-0,-1,0,0,1,0,0.5808199981293
8,2,1,1,116,1,0,1,-1,-1,-1,-0,0,0,0,1,0.643265141947268
8,2,1,1,117,1,0,1,-1,-1,-1,-1,0,0,0,0,0.612308402502094
8,2,1,1,118,1,0,1,-1,-1,-1,-1,0,0,0,0,0.562830812183165
8,2,1,1,119,1,0,1,-1,-1,-1,-1,0,0,0,0,0.574854840811895
8,2,1,1,120,1,0,1,-1,-1,-1,-1,0,0,0,0,0.595177851624612
8,2,1,1,121,1,0,1,-1,-1,-1,-1,0,0,0,0,0.549508102438267
8,2,1,1,122,1,0,1,-1,-1,-1,-1,0,0,0,0,0.535704717176486
8,2,1,1,123,1,0,1,-1,-1,-1,-1,0,0,0,0,0.632391600503979
8,2,1,1,124,1,0,1,-1,-1,-1,-1,0,0,0,0,0.611258558215923
8,2,1,1,125,1,0,1,-1,-1,-1,-1,0,0,0,0,0.595528487174306
8,2,1,1,126,0,0,0,-1,-1,-1,-1,0,0,0,0,0.561803420347132
8,2,1,1,127,0,0,0,-0,-1,-1,-1,1,0,0,0,0.589367782389672
8,2,1,1,128,1,1,1,-0,-0,-1,-1,1,1,0,0,0.655985206571131
8,2,1,1,129,1,1,1,1,-0,-0,-1,-0,1,1,0,0.674805164602731
8,2,1,1,130,1,1,1,1,1,-0,-0,-0,-0,1,1,0.662413742196804
8,2,1,1,131,0,1,1,1,1,1,-0,-0,-0,-0,1,0.609350256961989
8,2,1,1,132,1,1,1,0,1,1,1,-1,-0,-0,-0,0.978051445526944
8,2,1,1,133,1,1,1,1,0,1,1,-0,-1,-0,-0,0.667820126107472
8,2,1,1,134,0,1,1,1,1,0,1,-0,-0,-1,-0,0.612556625834259
8,2,1,1,135,1,0,0,0,1,1,0,-1,-0,-0,-1,0.854621842294364
8,2,1,1,136,0,0,0,-1,0,1,1,0,-1,-0,-0,1.15244810069817
8,2,1,1,137,1,1,1,-0,-1,0,1,1,0,-1,-0,0.715323524398627
8,2,1,1,138,0,1,1,1,-0,-1,0,-0,1,0,-1,0.758393713327678
8,2,1,1,139,0,0,0,0,1,-0,-1,-1,-0,1,0,0.834490231163727
8,2,1,1,140,0,1,1,-0,0,1,-0,1,-1,-0,1,0.851804811407419
8,2,1,1,141,0,0,0,0,-0,0,1,-1,1,-1,-0,1.15988131540871
8,2,1,1,142,0,0,0,-0,0,-0,0,1,-1,1,-1,0.537387011976534
8,2,1,1,143,1,1,1,-0,-0,0,-0,1,1,-1,1,0.608448507022331
8,2,1,1,144,1,1,1,1,-0,-0,0,-0,1,1,-1,0.603731514896936
8,2,1,1,145,1,1,1,1,1,-0,-0,-0,-0,1,1,0.628253739123465
8,2,1,1,146,1,1,1,1,1,1,-0,-0,-0,-0,1,0.625391959047192
8,2,1,1,147,1,1,1,1,1,1,1,-0,-0,-0,-0,0.617836363058814
8,2,1,1,148,0,1,1,1,1,1,1,-0,-0,-0,-0,0.743889485343971
8,2,1,1,149,0,0,0,0,1,1,1,-1,-0,-0,-0,0.608671252855856
8,2,1,1,150,1,0,0,-0,0,1,1,1,-1,-0,-0,0.574151419463306
8,2,1,1,151,0,0,0,-1,-0,0,1,0,1,-1,-0,0.619681159696484
8,2,1,1,152,0,0,0,-0,-1,-0,0,1,0,1,-1,0.60754094490585
8,2,1,1,153,0,1,1,-0,-0,-1,-0,1,1,0,1,0.644856251921738
8,2,1,1,154,1,1,1,0,-0,-0,-1,-1,1,1,0,0.604401592552676
8,2,1,1,155,0,0,0,1,0,-0,-0,-0,-1,1,1,0.735758964539855
8,2,1,1,156,1,1,1,-0,1,0,-0,1,-0,-1,1,1.00400230061314
8,2,1,1,157,1,1,1,1,-0,1,0,-0,1,-0,-1,0.592706819639716
8,2,1,1,158,1,1,1,1,1,-0,1,-0,-0,1,-0,0.593795501021305
8,2,1,1,159,1,1,1,1,1,1,-0,-0,-0,-0,1,0.702484640189141
8,2,1,1,160,0,1,1,1,1,1,1,-0,-0,-0,-0,0.661400853081432
9,2,1,1,1,0,1,1,NaN,NaN,NaN,NaN,NaN,NaN,NaN,NaN,0.963889477832709
9,2,1,1,2,0,1,1,0,NaN,NaN,NaN,-1,NaN,NaN,NaN,0.826327283022692
9,2,1,1,3,1,1,1,0,0,NaN,NaN,-1,-1,NaN,NaN,0.579857651959173
9,2,1,1,4,1,1,1,1,0,0,NaN,-0,-1,-1,NaN,0.625837070401758
9,2,1,1,5,1,1,1,1,1,0,0,-0,-0,-1,-1,0.496050144865876
9,2,1,1,6,1,1,1,1,1,1,0,-0,-0,-0,-1,0.935855535120936
9,2,1,1,7,1,1,1,1,1,1,1,-0,-0,-0,-0,0.811847195291193
9,2,1,1,8,1,1,1,1,1,1,1,-0,-0,-0,-0,0.516819034761284
9,2,1,1,9,1,1,1,1,1,1,1,-0,-0,-0,-0,0.800589163060067
9,2,1,1,10,0,1,1,1,1,1,1,-0,-0,-0,-0,0.59146487704129
9,2,1,1,11,1,1,1,0,1,1,1,-1,-0,-0,-0,0.598882675083587
9,2,1,1,12,1,1,1,1,0,1,1,-0,-1,-0,-0,0.682764920813497
9,2,1,1,13,1,1,1,1,1,0,1,-0,-0,-1,-0,0.586492689355509
9,2,1,1,14,1,1,1,1,1,1,0,-0,-0,-0,-1,0.951112599286716
9,2,1,1,15,1,1,1,1,1,1,1,-0,-0,-0,-0,0.516771034192061
9,2,1,1,16,0,1,1,1,1,1,1,-0,-0,-0,-0,0.544639768369962
9,2,1,1,17,1,1,1,0,1,1,1,-1,-0,-0,-0,0.531827638245886
9,2,1,1,18,1,1,1,1,0,1,1,-0,-1,-0,-0,0.71103506613872
9,2,1,1,19,1,1,1,1,1,0,1,-0,-0,-1,-0,0.540366961504333
9,2,1,1,20,0,1,1,1,1,1,0,-0,-0,-0,-1,0.531231100088917
9,2,1,1,21,1,1,1,0,1,1,1,-1,-0,-0,-0,0.597713731054682
9,2,1,1,22,1,1,1,1,0,1,1,-0,-1,-0,-0,0.629061028244905
9,2,1,1,23,0,1,1,1,1,0,1,-0,-0,-1,-0,0.701920574880205
9,2,1,1,24,0,1,1,0,1,1,0,-1,-0,-0,-1,0.49699573018006
9,2,1,1,25,1,1,1,0,0,1,1,-1,-1,-0,-0,0.574430722161196
9,2,1,1,26,1,1,1,1,0,0,1,-0,-1,-1,-0,0.512871990533313
9,2,1,1,27,1,1,1,1,1,0,0,-0,-0,-1,-1,0.550139674800448
9,2,1,1,28,1,1,1,1,1,1,0,-0,-0,-0,-1,0.678283022949472
9,2,1,1,29,0,1,1,1,1,1,1,-0,-0,-0,-0,0.59980182047002
9,2,1,1,30,1,1,1,0,1,1,1,-1,-0,-0,-0,0.571876033791341
9,2,1,1,31,0,1,1,1,0,1,1,-0,-1,-0,-0,0.559292039106367
9,2,1,1,32,1,1,1,0,1,0,1,-1,-0,-1,-0,0.547896060656058
9,2,1,1,33,1,1,1,1,0,1,0,-0,-1,-0,-1,0.494463033188367
9,2,1,1,34,1,1,1,1,1,0,1,-0,-0,-1,-0,0.576527673983946
9,2,1,1,35,0,1,1,1,1,1,0,-0,-0,-0,-1,0.652262218180113
9,2,1,1,36,1,1,1,0,1,1,1,-1,-0,-0,-0,0.542667272617109
9,2,1,1,37,1,1,1,1,0,1,1,-0,-1,-0,-0,0.560083102493081
9,2,1,1,38,1,1,1,1,1,0,1,-0,-0,-1,-0,0.592636688466882
9,2,1,1,39,1,1,1,1,1,1,0,-0,-0,-0,-1,0.518843843688956
9,2,1,1,40,0,1,1,1,1,1,1,-0,-0,-0,-0,0.685452428122517
9,2,1,1,41,1,1,1,0,1,1,1,-1,-0,-0,-0,0.51194014630164
9,2,1,1,42,0,1,1,1,0,1,1,-0,-1,-0,-0,0.664339174923953
9,2,1,1,43,1,1,1,0,1,0,1,-1,-0,-1,-0,0.6245881926734
9,2,1,1,44,1,1,1,1,0,1,0,-0,-1,-0,-1,0.576364773471141
9,2,1,1,45,0,1,1,1,1,0,1,-0,-0,-1,-0,0.688639793428592
9,2,1,1,46,1,1,1,0,1,1,0,-1,-0,-0,-1,0.570415841590147
9,2,1,1,47,1,1,1,1,0,1,1,-0,-1,-0,-0,0.555000766908051
9,2,1,1,48,1,1,1,1,1,0,1,-0,-0,-1,-0,0.562204885005485
9,2,1,1,49,1,1,1,1,1,1,0,-0,-0,-0,-1,0.56164910964435
9,2,1,1,50,0,1,1,1,1,1,1,-0,-0,-0,-0,0.58211156676407
9,2,1,1,51,1,1,1,0,1,1,1,-1,-0,-0,-0,0.501625128410524
9,2,1,1,52,1,1,1,1,0,1,1,-0,-1,-0,-0,0.563098949060077
9,2,1,1,53,1,1,1,1,1,0,1,-0,-0,-1,-0,0.511902894766536
9,2,1,1,54,0,1,1,1,1,1,0,-0,-0,-0,-1,0.653864313993836
9,2,1,1,55,1,1,1,0,1,1,1,-1,-0,-0,-0,0.65467231432558
9,2,1,1,56,0,1,0,1,0,1,1,-0,-1,-0,-0,0.943322694423841
9,2,1,1,57,1,1,0,0,1,0,1,-1,-0,-1,-0,0.547627259977162
9,2,1,1,58,0,1,0,1,0,1,0,-0,-1,-0,-1,0.668466331291711
9,2,1,1,59,0,1,0,0,1,0,1,-1,-0,-1,-0,0.540696856944123
9,2,1,1,60,0,1,0,0,0,1,0,-1,-1,-0,-1,0.594613590044901
9,2,1,1,61,0,1,0,0,0,0,1,-1,-1,-1,-0,0.63267046312103
9,2,1,1,62,0,1,0,0,0,0,0,-1,-1,-1,-1,0.698056735360296
9,2,1,1,63,0,1,0,0,0,0,0,-1,-1,-1,-1,0.586421103507746
9,2,1,1,64,0,1,0,0,0,0,0,-1,-1,-1,-1,0.903013094823109
9,2,1,1,65,0,1,0,0,0,0,0,-1,-1,-1,-1,0.60456239094492
9,2,1,1,66,0,1,0,0,0,0,0,-1,-1,-1,-1,0.714756130240858
9,2,1,1,67,1,0,1,0,0,0,0,-1,-1,-1,-1,0.548109437164385
9,2,1,1,68,1,0,1,-1,0,0,0,0,-1,-1,-1,0.617953480716096
9,2,1,1,69,1,0,1,-1,-1,0,0,0,0,-1,-1,0.529151724389521
9,2,1,1,70,0,0,1,-1,-1,-1,0,0,0,0,-1,0.542052798031364
9,2,1,1,71,0,0,0,-0,-1,-1,-1,1,0,0,0,0.489605146634858
9,2,1,1,72,1,0,0,-0,-0,-1,-1,1,1,0,0,0.578739570220932
9,2,1,1,73,1,0,0,-1,-0,-0,-1,0,1,1,0,0.65546694380464
9,2,1,1,74,0,0,0,-1,-1,-0,-0,0,0,1,1,0.514375208411366
9,2,1,1,75,1,0,0,-0,-1,-1,-0,1,0,0,1,0.442900661641033
9,2,1,1,76,0,0,0,-1,-0,-1,-1,0,1,0,0,0.818245571630541
9,2,1,1,77,0,0,0,-0,-1,-0,-1,1,0,1,0,0.756906331545906
9,2,1,1,78,0,0,0,-0,-0,-1,-0,1,1,0,1,0.676056116848486
9,2,1,1,79,0,0,0,-0,-0,-0,-1,1,1,1,0,0.651769151882036
9,2,1,1,80,1,1,1,-0,-0,-0,-0,1,1,1,1,0.528615837916732
9,2,1,1,81,1,1,1,1,-0,-0,-0,-0,1,1,1,0.912009122403106
9,2,1,1,82,1,1,1,1,1,-0,-0,-0,-0,1,1,0.496209290809929
9,2,1,1,83,1,1,1,1,1,1,-0,-0,-0,-0,1,0.873854441422736
9,2,1,1,84,1,1,1,1,1,1,1,-0,-0,-0,-0,0.556523302249843
9,2,1,1,85,1,1,1,1,1,1,1,-0,-0,-0,-0,0.576776811038144
9,2,1,1,86,1,1,1,1,1,1,1,-0,-0,-0,-0,0.603404866968049
9,2,1,1,87,0,1,1,1,1,1,1,-0,-0,-0,-0,1.01644223474432
9,2,1,1,88,0,1,1,0,1,1,1,-1,-0,-0,-0,0.677549776301021
9,2,1,1,89,1,1,1,0,0,1,1,-1,-1,-0,-0,0.702523503394332
9,2,1,1,90,1,1,1,1,0,0,1,-0,-1,-1,-0,0.661205965327099
9,2,1,1,91,0,1,0,1,1,0,0,-0,-0,-1,-1,0.655296432232717
9,2,1,1,92,0,1,0,0,1,1,0,-1,-0,-0,-1,0.778581136983121
9,2,1,1,93,0,1,0,0,0,1,1,-1,-1,-0,-0,0.500172980944626
9,2,1,1,94,1,1,0,0,0,0,1,-1,-1,-1,-0,0.629396908392664
9,2,1,1,95,0,1,0,1,0,0,0,-0,-1,-1,-1,0.679398260079324
9,2,1,1,96,0,1,0,0,1,0,0,-1,-0,-1,-1,0.832784869824536
9,2,1,1,97,0,1,0,0,0,1,0,-1,-1,-0,-1,0.795992791623576
9,2,1,1,98,0,1,0,0,0,0,1,-1,-1,-1,-0,0.553330679045757
9,2,1,1,99,0,1,0,0,0,0,0,-1,-1,-1,-1,0.611236659722636
9,2,1,1,100,0,0,1,0,0,0,0,-1,-1,-1,-1,0.619060171826277
9,2,1,1,101,1,0,1,-0,0,0,0,1,-1,-1,-1,0.51414831369766
9,2,1,1,102,1,0,1,-1,-0,0,0,0,1,-1,-1,0.691218287916854
9,2,1,1,103,1,0,1,-1,-1,-0,0,0,0,1,-1,0.588192537979921
9,2,1,1,104,1,0,1,-1,-1,-1,-0,0,0,0,1,0.602860660350416
9,2,1,1,105,1,0,1,-1,-1,-1,-1,0,0,0,0,0.560228902992094
9,2,1,1,106,0,0,0,-1,-1,-1,-1,0,0,0,0,0.598117773333797
9,2,1,1,107,0,0,0,-0,-1,-1,-1,1,0,0,0,0.801083249505609
9,2,1,1,108,0,0,0,-0,-0,-1,-1,1,1,0,0,0.581043780897744
9,2,1,1,109,0,0,0,-0,-0,-0,-1,1,1,1,0,0.58307969244197
9,2,1,1,110,1,1,1,-0,-0,-0,-0,1,1,1,1,0.652586186741246
9,2,1,1,111,1,1,1,1,-0,-0,-0,-0,1,1,1,0.606071059592068
9,2,1,1,112,1,1,1,1,1,-0,-0,-0,-0,1,1,0.622358552500373
9,2,1,1,113,1,1,1,1,1,1,-0,-0,-0,-0,1,0.613915335328784
9,2,1,1,114,1,1,1,1,1,1,1,-0,-0,-0,-0,0.678522245318163
9,2,1,1,115,1,1,1,1,1,1,1,-0,-0,-0,-0,0.742757169122342
9,2,1,1,116,1,1,1,1,1,1,1,-0,-0,-0,-0,0.636722612893209
9,2,1,1,117,1,1,1,1,1,1,1,-0,-0,-0,-0,0.691663251054706
9,2,1,1,118,1,1,1,1,1,1,1,-0,-0,-0,-0,0.712513974343892
9,2,1,1,119,1,1,1,1,1,1,1,-0,-0,-0,-0,0.77833332051523
9,2,1,1,120,1,1,1,1,1,1,1,-0,-0,-0,-0,0.567947492672829
9,2,1,1,121,1,1,1,1,1,1,1,-0,-0,-0,-0,0.752830295445165
9,2,1,1,122,0,1,1,1,1,1,1,-0,-0,-0,-0,0.674474619328976
9,2,1,1,123,1,1,1,0,1,1,1,-1,-0,-0,-0,0.742032952606678
9,2,1,1,124,1,1,1,1,0,1,1,-0,-1,-0,-0,0.633910935546737
9,2,1,1,125,1,1,1,1,1,0,1,-0,-0,-1,-0,0.580208395957015
9,2,1,1,126,1,1,0,1,1,1,0,-0,-0,-0,-1,0.515356451331172
9,2,1,1,127,1,1,0,1,1,1,1,-0,-0,-0,-0,0.691950494365301
9,2,1,1,128,0,1,0,1,1,1,1,-0,-0,-0,-0,0.7619248527335
9,2,1,1,129,0,1,0,0,1,1,1,-1,-0,-0,-0,0.559894667210756
9,2,1,1,130,1,1,0,0,0,1,1,-1,-1,-0,-0,0.602692100947024
9,2,1,1,131,0,1,0,1,0,0,1,-0,-1,-1,-0,0.527568051154958
9,2,1,1,132,0,1,0,0,1,0,0,-1,-0,-1,-1,0.632247142813867
9,2,1,1,133,0,1,0,0,0,1,0,-1,-1,-0,-1,0.791494959266856
9,2,1,1,134,1,0,1,0,0,0,1,-1,-1,-1,-0,0.670484779955586
9,2,1,1,135,0,0,1,-1,0,0,0,0,-1,-1,-1,0.822529175027739
9,2,1,1,136,0,0,1,-0,-1,0,0,1,0,-1,-1,0.578337038663449
9,2,1,1,137,1,0,1,-0,-0,-1,0,1,1,0,-1,0.54173071947298
9,2,1,1,138,0,0,1,-1,-0,-0,-1,0,1,1,0,0.633376657991903
9,2,1,1,139,1,0,1,-0,-1,-0,-0,1,0,1,1,0.620494535920443
9,2,1,1,140,1,0,1,-1,-0,-1,-0,0,1,0,1,0.720852156140609
9,2,1,1,141,1,0,1,-1,-1,-0,-1,0,0,1,0,0.547346548031783
9,2,1,1,142,1,0,1,-1,-1,-1,-0,0,0,0,1,0.596970151673304
9,2,1,1,143,1,0,1,-1,-1,-1,-1,0,0,0,0,0.529498521354981
9,2,1,1,144,0,0,1,-1,-1,-1,-1,0,0,0,0,0.61832349706674
9,2,1,1,145,1,0,1,-0,-1,-1,-1,1,0,0,0,0.689980431925505
9,2,1,1,146,0,0,1,-1,-0,-1,-1,0,1,0,0,0.686550821526907
9,2,1,1,147,1,0,1,-0,-1,-0,-1,1,0,1,0,0.481281297717942
9,2,1,1,148,1,0,1,-1,-0,-1,-0,0,1,0,1,0.609334857639624
9,2,1,1,149,1,0,1,-1,-1,-0,-1,0,0,1,0,0.742785195645411
9,2,1,1,150,1,0,1,-1,-1,-1,-0,0,0,0,1,0.778522152104415
9,2,1,1,151,1,0,1,-1,-1,-1,-1,0,0,0,0,0.618436825781828
9,2,1,1,152,1,0,1,-1,-1,-1,-1,0,0,0,0,0.715428867581068
9,2,1,1,153,0,0,1,-1,-1,-1,-1,0,0,0,0,0.658639392437181
9,2,1,1,154,0,0,1,-0,-1,-1,-1,1,0,0,0,0.623702326382045
9,2,1,1,155,0,0,1,-0,-0,-1,-1,1,1,0,0,0.694340157293482
9,2,1,1,156,0,1,0,-0,-0,-0,-1,1,1,1,0,0.660192843730329
9,2,1,1,157,1,0,1,0,-0,-0,-0,-1,1,1,1,0.693663041543914
9,2,1,1,158,1,0,1,-1,0,-0,-0,0,-1,1,1,0.638420072966255
9,2,1,1,159,0,0,1,-1,-1,0,-0,0,0,-1,1,0.685362855409039
9,2,1,1,160,1,0,1,-0,-1,-1,0,1,0,0,-1,1.16622536932118
10,2,1,1,1,1,0,1,NaN,NaN,NaN,NaN,NaN,NaN,NaN,NaN,0.845546528529667
10,2,1,1,2,1,0,1,-1,NaN,NaN,NaN,0,NaN,NaN,NaN,0.56528494025406
10,2,1,1,3,0,0,1,-1,-1,NaN,NaN,0,0,NaN,NaN,0.518678372893191
10,2,1,1,4,0,0,1,-0,-1,-1,NaN,1,0,0,NaN,0.498147439753666
10,2,1,1,5,0,1,0,-0,-0,-1,-1,1,1,0,0,0.992636899030913
10,2,1,1,6,1,1,0,0,-0,-0,-1,-1,1,1,0,0.749850743144634
10,2,1,1,7,0,1,0,1,0,-0,-0,-0,-1,1,1,0.480401592551061
10,2,1,1,8,1,0,1,0,1,0,-0,-1,-0,-1,1,0.811572306429298
10,2,1,1,9,1,0,1,-1,0,1,0,0,-1,-0,-1,0.642641808677581
10,2,1,1,10,1,1,0,-1,-1,0,1,0,0,-1,-0,0.56751770586925
10,2,1,1,11,1,1,0,1,-1,-1,0,-0,0,0,-1,0.612503390941129
10,2,1,1,12,0,1,0,1,1,-1,-1,-0,-0,0,0,0.609902324336872
10,2,1,1,13,1,0,1,0,1,1,-1,-1,-0,-0,0,0.516462340779981
10,2,1,1,14,1,0,1,-1,0,1,1,0,-1,-0,-0,0.518364083360211
10,2,1,1,15,0,1,0,-1,-1,0,1,0,0,-1,-0,0.452722162073769
10,2,1,1,16,1,0,1,0,-1,-1,0,-1,0,0,-1,0.487949777460017
10,2,1,1,17,1,0,1,-1,0,-1,-1,0,-1,0,0,0.57223101868658
10,2,1,1,18,0,0,1,-1,-1,0,-1,0,0,-1,0,0.797731798251334
10,2,1,1,19,1,1,0,-0,-1,-1,0,1,0,0,-1,0.696819429405878
10,2,1,1,20,1,0,1,1,-0,-1,-1,-0,1,0,0,0.69839652518931
10,2,1,1,21,0,1,0,-1,1,-0,-1,0,-0,1,0,0.759373534088809
10,2,1,1,22,0,1,0,0,-1,1,-0,-1,0,-0,1,0.389424387838517
10,2,1,1,23,0,1,0,0,0,-1,1,-1,-1,0,-0,0.653127375793702
10,2,1,1,24,1,0,1,0,0,0,-1,-1,-1,-1,0,0.455985434462491
10,2,1,1,25,1,0,1,-1,0,0,0,0,-1,-1,-1,0.571566116323083
10,2,1,1,26,1,0,1,-1,-1,0,0,0,0,-1,-1,0.802519469838444
10,2,1,1,27,0,1,0,-1,-1,-1,0,0,0,0,-1,0.595736615006899
10,2,1,1,28,0,0,1,0,-1,-1,-1,-1,0,0,0,0.720401880585996
10,2,1,1,29,1,0,1,-0,0,-1,-1,1,-1,0,0,0.847518637809117
10,2,1,1,30,0,1,0,-1,-0,0,-1,0,1,-1,0,0.41079664380959
10,2,1,1,31,1,0,1,0,-1,-0,0,-1,0,1,-1,0.609858241441543
10,2,1,1,32,1,0,1,-1,0,-1,-0,0,-1,0,1,0.413262084486632
10,2,1,1,33,1,0,1,-1,-1,0,-1,0,0,-1,0,0.412753202814201
10,2,1,1,34,1,1,0,-1,-1,-1,0,0,0,0,-1,0.408116965394584
10,2,1,1,35,1,0,1,1,-1,-1,-1,-0,0,0,0,0.467830809509906
10,2,1,1,36,1,1,0,-1,1,-1,-1,0,-0,0,0,0.485887352806458
10,2,1,1,37,1,1,0,1,-1,1,-1,-0,0,-0,0,0.424882107341546
10,2,1,1,38,1,1,0,1,1,-1,1,-0,-0,0,-0,0.390636595624528
10,2,1,1,39,1,0,1,1,1,1,-1,-0,-0,-0,0,0.45307075263554
10,2,1,1,40,1,0,1,-1,1,1,1,0,-0,-0,-0,0.627491446462955
10,2,1,1,41,0,1,0,-1,-1,1,1,0,0,-0,-0,0.459180961544916
10,2,1,1,42,0,1,0,0,-1,-1,1,-1,0,0,-0,0.366365569658228
10,2,1,1,43,1,0,1,0,0,-1,-1,-1,-1,0,0,0.61001880087133
10,2,1,1,44,1,0,1,-1,0,0,-1,0,-1,-1,0,0.507502037304221
10,2,1,1,45,0,1,0,-1,-1,0,0,0,0,-1,-1,0.399361898031202
10,2,1,1,46,1,0,1,0,-1,-1,0,-1,0,0,-1,0.581922954675974
10,2,1,1,47,1,0,1,-1,0,-1,-1,0,-1,0,0,0.35461734398632
10,2,1,1,48,0,1,0,-1,-1,0,-1,0,0,-1,0,0.390190251884633
10,2,1,1,49,0,1,0,0,-1,-1,0,-1,0,0,-1,0.733690868386475
10,2,1,1,50,0,1,0,0,0,-1,-1,-1,-1,0,0,0.463932347262016
10,2,1,1,51,1,0,1,0,0,0,-1,-1,-1,-1,0,0.966061427548993
10,2,1,1,52,1,0,1,-1,0,0,0,0,-1,-1,-1,0.390732542404294
10,2,1,1,53,1,0,1,-1,-1,0,0,0,0,-1,-1,0.400939682825992
10,2,1,1,54,0,1,0,-1,-1,-1,0,0,0,0,-1,0.385850177099201
10,2,1,1,55,1,0,1,0,-1,-1,-1,-1,0,0,0,0.661627358422265
10,2,1,1,56,0,1,1,-1,0,-1,-1,0,-1,0,0,0.408109181404143
10,2,1,1,57,0,0,0,0,-1,0,-1,-1,0,-1,0,1.07129898218045
10,2,1,1,58,0,0,0,-0,0,-1,0,1,-1,0,-1,0.976104174184002
10,2,1,1,59,1,1,1,-0,-0,0,-1,1,1,-1,0,0.679822003017762
10,2,1,1,60,1,1,1,1,-0,-0,0,-0,1,1,-1,0.969363216248894
10,2,1,1,61,1,1,1,1,1,-0,-0,-0,-0,1,1,1.04717117266046
10,2,1,1,62,0,1,1,1,1,1,-0,-0,-0,-0,1,0.637990715011256
10,2,1,1,63,1,1,1,0,1,1,1,-1,-0,-0,-0,1.28772892858251
10,2,1,1,64,0,0,0,1,0,1,1,-0,-1,-0,-0,1.01356325701272
10,2,1,1,65,1,1,1,-0,1,0,1,1,-0,-1,-0,0.881005102448398
10,2,1,1,66,1,1,1,1,-0,1,0,-0,1,-0,-1,0.730038243313174
10,2,1,1,67,1,1,1,1,1,-0,1,-0,-0,1,-0,0.353804222304461
10,2,1,1,68,0,0,0,1,1,1,-0,-0,-0,-0,1,0.635101700816449
10,2,1,1,69,1,1,1,-0,1,1,1,1,-0,-0,-0,1.03355456313511
10,2,1,1,70,0,0,0,1,-0,1,1,-0,1,-0,-0,0.438286333654105
10,2,1,1,71,0,1,0,-0,1,-0,1,1,-0,1,-0,0.631900386943016
10,2,1,1,72,0,1,0,0,-0,1,-0,-1,1,-0,1,0.672874218093057
10,2,1,1,73,1,0,1,0,0,-0,1,-1,-1,1,-0,0.750561976223253
10,2,1,1,74,1,0,1,-1,0,0,-0,0,-1,-1,1,0.658113206223788
10,2,1,1,75,0,0,1,-1,-1,0,0,0,0,-1,-1,0.665544561397837
10,2,1,1,76,1,0,1,-0,-1,-1,0,1,0,0,-1,0.942837979670003
10,2,1,1,77,0,0,1,-1,-0,-1,-1,0,1,0,0,0.793430437934148
10,2,1,1,78,0,0,1,-0,-1,-0,-1,1,0,1,0,0.901164879640419
10,2,1,1,79,1,1,0,-0,-0,-1,-0,1,1,0,1,0.888286554192746
10,2,1,1,80,0,1,0,1,-0,-0,-1,-0,1,1,0,0.683181187094306
10,2,1,1,81,0,1,0,0,1,-0,-0,-1,-0,1,1,1.44046774128947
10,2,1,1,82,0,1,0,0,0,1,-0,-1,-1,-0,1,0.630486893020134
10,2,1,1,83,0,1,0,0,0,0,1,-1,-1,-1,-0,0.980980622720381
10,2,1,1,84,0,0,0,0,0,0,0,-1,-1,-1,-1,0
10,2,1,1,85,0,1,0,NaN,0,0,0,NaN,-1,-1,-1,0.533622774568357
10,2,1,1,86,0,0,1,0,NaN,0,0,-1,NaN,-1,-1,0.546468054722936
10,2,1,1,87,0,1,0,-0,0,NaN,0,1,-1,NaN,-1,0.543114058302308
10,2,1,1,88,1,0,1,0,-0,0,NaN,-1,1,-1,NaN,0.725649509804498
10,2,1,1,89,0,0,1,-1,0,-0,0,0,-1,1,-1,0.491454037852236
10,2,1,1,90,0,1,0,-0,-1,0,-0,1,0,-1,1,0.759643866033002
10,2,1,1,91,0,0,0,0,-0,-1,0,-1,1,0,-1,0.679802435275633
10,2,1,1,92,1,1,1,-0,0,-0,-1,1,-1,1,0,0.508151685113262
10,2,1,1,93,0,0,0,1,-0,0,-0,-0,1,-1,1,0.380951631981588
10,2,1,1,94,1,1,1,-0,1,-0,0,1,-0,1,-1,0.597177773768635
10,2,1,1,95,1,1,1,1,-0,1,-0,-0,1,-0,1,0.638455411204632
10,2,1,1,96,0,1,1,1,1,-0,1,-0,-0,1,-0,0.534323409119679
10,2,1,1,97,1,1,1,0,1,1,-0,-1,-0,-0,1,0.939697634563345
10,2,1,1,98,1,1,1,1,0,1,1,-0,-1,-0,-0,0.554114489354106
10,2,1,1,99,1,1,1,1,1,0,1,-0,-0,-1,-0,0.571845064288937
10,2,1,1,100,1,1,1,1,1,1,0,-0,-0,-0,-1,0.810550593450898
10,2,1,1,101,0,1,1,1,1,1,1,-0,-0,-0,-0,0.624632778981322
10,2,1,1,102,0,0,0,0,1,1,1,-1,-0,-0,-0,0.908948897642404
10,2,1,1,103,0,0,0,-0,0,1,1,1,-1,-0,-0,1.10171939532302
10,2,1,1,104,0,0,0,-0,-0,0,1,1,1,-1,-0,0.542304472914111
10,2,1,1,105,1,1,1,-0,-0,-0,0,1,1,1,-1,0.69784029532093
10,2,1,1,106,1,0,1,1,-0,-0,-0,-0,1,1,1,0.837993617093161
10,2,1,1,107,1,0,1,-1,1,-0,-0,0,-0,1,1,0.723428395285737
10,2,1,1,108,1,0,1,-1,-1,1,-0,0,0,-0,1,0.697648903322261
10,2,1,1,109,0,0,1,-1,-1,-1,1,0,0,0,-0,0.405797500905464
10,2,1,1,110,0,1,0,-0,-1,-1,-1,1,0,0,0,0.866610131390189
10,2,1,1,111,0,1,0,0,-0,-1,-1,-1,1,0,0,0.368012142294901
10,2,1,1,112,1,0,1,0,0,-0,-1,-1,-1,1,0,0.462585340897931
10,2,1,1,113,1,0,1,-1,0,0,-0,0,-1,-1,1,0.410798523396807
10,2,1,1,114,0,1,0,-1,-1,0,0,0,0,-1,-1,0.681691655303439
10,2,1,1,115,0,0,1,0,-1,-1,0,-1,0,0,-1,0.642739933104167
10,2,1,1,116,0,0,0,-0,0,-1,-1,1,-1,0,0,0
10,2,1,1,117,1,1,0,NaN,-0,0,-1,NaN,1,-1,0,0.491586716587335
10,2,1,1,118,0,0,1,1,NaN,-0,0,-0,NaN,1,-1,0.414399928493367
10,2,1,1,119,0,0,1,-0,1,NaN,-0,1,-0,NaN,1,0.54670640362383
10,2,1,1,120,1,0,1,-0,-0,1,NaN,1,1,-0,NaN,0.655138001722662
10,2,1,1,121,1,0,1,-1,-0,-0,1,0,1,1,-0,0.725464072336763
10,2,1,1,122,1,0,1,-1,-1,-0,-0,0,0,1,1,0.484558708245459
10,2,1,1,123,1,0,1,-1,-1,-1,-0,0,0,0,1,0.650256195116526
10,2,1,1,124,0,0,1,-1,-1,-1,-1,0,0,0,0,0.678062151651829
10,2,1,1,125,0,1,0,-0,-1,-1,-1,1,0,0,0,1.10302587079059
10,2,1,1,126,0,1,1,0,-0,-1,-1,-1,1,0,0,1.24106091363137
10,2,1,1,127,0,0,0,0,0,-0,-1,-1,-1,1,0,0.796988126025099
10,2,1,1,128,1,1,1,-0,0,0,-0,1,-1,-1,1,1.10551953032336
10,2,1,1,129,0,1,1,1,-0,0,0,-0,1,-1,-1,0.929562677934882
10,2,1,1,130,0,0,0,0,1,-0,0,-1,-0,1,-1,1.41066811018754
10,2,1,1,131,0,0,0,-0,0,1,-0,1,-1,-0,1,0.711244817353872
10,2,1,1,132,0,1,1,-0,-0,0,1,1,1,-1,-0,1.42812389229584
10,2,1,1,133,0,0,0,0,-0,-0,0,-1,1,1,-1,1.46432182525314
10,2,1,1,134,1,1,1,-0,0,-0,-0,1,-1,1,1,1.46584681890454
10,2,1,1,135,0,0,0,1,-0,0,-0,-0,1,-1,1,0
10,2,1,1,136,0,0,0,NaN,1,-0,0,NaN,-0,1,-1,0.797436334654776
10,2,1,1,137,1,0,0,-0,NaN,1,-0,1,NaN,-0,1,0.643045012497168
10,2,1,1,138,0,0,0,-1,-0,NaN,1,0,1,NaN,-0,0.621332290789724
10,2,1,1,139,1,0,0,-0,-1,-0,NaN,1,0,1,NaN,0.598362853026629
10,2,1,1,140,0,0,0,-1,-0,-1,-0,0,1,0,1,0.583721864015388
10,2,1,1,141,0,0,0,-0,-1,-0,-1,1,0,1,0,0.473437176711741
10,2,1,1,142,1,1,1,-0,-0,-1,-0,1,1,0,1,0.596633493390982
10,2,1,1,143,1,1,1,1,-0,-0,-1,-0,1,1,0,0.558581263285305
10,2,1,1,144,0,1,1,1,1,-0,-0,-0,-0,1,1,0.531078712057933
10,2,1,1,145,0,0,0,0,1,1,-0,-1,-0,-0,1,0.495374832258676
10,2,1,1,146,0,0,0,-0,0,1,1,1,-1,-0,-0,0.789945589905983
10,2,1,1,147,1,1,1,-0,-0,0,1,1,1,-1,-0,0.721886964191071
10,2,1,1,148,1,1,1,1,-0,-0,0,-0,1,1,-1,0.684343661199819
10,2,1,1,149,1,1,1,1,1,-0,-0,-0,-0,1,1,0.672155223746813
10,2,1,1,150,1,1,1,1,1,1,-0,-0,-0,-0,1,0.605579188217234
10,2,1,1,151,1,1,1,1,1,1,1,-0,-0,-0,-0,0.617351991528267
10,2,1,1,152,1,0,0,1,1,1,1,-0,-0,-0,-0,0.565500776894623
10,2,1,1,153,0,1,1,-1,1,1,1,0,-0,-0,-0,0.545262876417837
10,2,1,1,154,0,0,0,0,-1,1,1,-1,0,-0,-0,0.961842230040929
10,2,1,1,155,1,1,1,-0,0,-1,1,1,-1,0,-0,0.501766420064087
10,2,1,1,156,0,0,0,1,-0,0,-1,-0,1,-1,0,0.681431214830809
10,2,1,1,157,0,1,1,-0,1,-0,0,1,-0,1,-1,0.690581581395236
10,2,1,1,158,1,1,1,0,-0,1,-0,-1,1,-0,1,0.683558826203807
10,2,1,1,159,1,0,0,1,0,-0,1,-0,-1,1,-0,0.819161378763965
10,2,1,1,160,1,1,1,-1,1,0,-0,0,-0,-1,1,0.468063915956009
11,2,1,1,1,1,1,1,NaN,NaN,NaN,NaN,NaN,NaN,NaN,NaN,1.0920552056632
11,2,1,1,2,1,1,1,1,NaN,NaN,NaN,-0,NaN,NaN,NaN,0.548223076330032
11,2,1,1,3,0,1,1,1,1,NaN,NaN,-0,-0,NaN,NaN,0.519824480521493
11,2,1,1,4,0,1,1,0,1,1,NaN,-1,-0,-0,NaN,0.574159310373943
11,2,1,1,5,0,0,0,0,0,1,1,-1,-1,-0,-0,0.505093852232676
11,2,1,1,6,1,1,1,-0,0,0,1,1,-1,-1,-0,0.709656965627801
11,2,1,1,7,1,1,1,1,-0,0,0,-0,1,-1,-1,0.502993981179316
11,2,1,1,8,1,0,0,1,1,-0,0,-0,-0,1,-1,0.613960045157
11,2,1,1,9,0,0,0,-1,1,1,-0,0,-0,-0,1,0.565058405161835
11,2,1,1,10,1,0,0,-0,-1,1,1,1,0,-0,-0,0.556274049915373
11,2,1,1,11,1,1,1,-1,-0,-1,1,0,1,0,-0,0.842898410395719
11,2,1,1,12,1,1,1,1,-1,-0,-1,-0,0,1,0,0.547397498157807
11,2,1,1,13,1,1,1,1,1,-1,-0,-0,-0,0,1,0.783430688083172
11,2,1,1,14,0,0,0,1,1,1,-1,-0,-0,-0,0,0.709056572988629
11,2,1,1,15,0,1,1,-0,1,1,1,1,-0,-0,-0,0.780605399573687
11,2,1,1,16,1,0,0,0,-0,1,1,-1,1,-0,-0,1.32359931967221
11,2,1,1,17,0,0,0,-1,0,-0,1,0,-1,1,-0,0.795327938278206
11,2,1,1,18,1,1,1,-0,-1,0,-0,1,0,-1,1,0.971101813425776
11,2,1,1,19,1,1,1,1,-0,-1,0,-0,1,0,-1,0.607411848439369
11,2,1,1,20,1,1,1,1,1,-0,-1,-0,-0,1,0,0.975118290632963
11,2,1,1,21,0,0,0,1,1,1,-0,-0,-0,-0,1,0.58216522319708
11,2,1,1,22,1,1,1,-0,1,1,1,1,-0,-0,-0,0.805089646892156
11,2,1,1,23,1,1,1,1,-0,1,1,-0,1,-0,-0,0.558080417569727
11,2,1,1,24,1,1,1,1,1,-0,1,-0,-0,1,-0,0.542208462778945
11,2,1,1,25,1,1,1,1,1,1,-0,-0,-0,-0,1,0.542964738386218
11,2,1,1,26,1,1,1,1,1,1,1,-0,-0,-0,-0,0.588041619921569
11,2,1,1,27,0,0,0,1,1,1,1,-0,-0,-0,-0,0.568270616466179
11,2,1,1,28,1,1,1,-0,1,1,1,1,-0,-0,-0,0.597400343511254
11,2,1,1,29,1,1,1,1,-0,1,1,-0,1,-0,-0,0.714749975071754
11,2,1,1,30,1,1,1,1,1,-0,1,-0,-0,1,-0,0.519694699323736
11,2,1,1,31,1,1,1,1,1,1,-0,-0,-0,-0,1,0.495722772961017
11,2,1,1,32,1,1,1,1,1,1,1,-0,-0,-0,-0,0.552206414751709
11,2,1,1,33,0,1,1,1,1,1,1,-0,-0,-0,-0,0.469621816882864
11,2,1,1,34,0,0,0,0,1,1,1,-1,-0,-0,-0,0.678127029736061
11,2,1,1,35,0,0,0,-0,0,1,1,1,-1,-0,-0,1.24555151490495
11,2,1,1,36,0,1,1,-0,-0,0,1,1,1,-1,-0,1.01977752847597
11,2,1,1,37,1,1,1,0,-0,-0,0,-1,1,1,-1,0.610890684765764
11,2,1,1,38,1,1,1,1,0,-0,-0,-0,-1,1,1,0.510535926558077
11,2,1,1,39,1,1,1,1,1,0,-0,-0,-0,-1,1,0.793360883253627
11,2,1,1,40,1,1,1,1,1,1,0,-0,-0,-0,-1,0.521982757665683
11,2,1,1,41,1,1,1,1,1,1,1,-0,-0,-0,-0,0.555514554085676
11,2,1,1,42,0,1,1,1,1,1,1,-0,-0,-0,-0,0.473060524382163
11,2,1,1,43,1,1,1,0,1,1,1,-1,-0,-0,-0,0.556011259322986
11,2,1,1,44,1,1,1,1,0,1,1,-0,-1,-0,-0,0.550442448642571
11,2,1,1,45,1,1,1,1,1,0,1,-0,-0,-1,-0,0.536249002732802
11,2,1,1,46,1,1,1,1,1,1,0,-0,-0,-0,-1,0.541538875491824
11,2,1,1,47,1,1,1,1,1,1,1,-0,-0,-0,-0,0.550851027364843
11,2,1,1,48,0,0,0,1,1,1,1,-0,-0,-0,-0,0.885919626511168
11,2,1,1,49,1,1,1,-0,1,1,1,1,-0,-0,-0,0.90223056206014
11,2,1,1,50,1,1,1,1,-0,1,1,-0,1,-0,-0,0.576992691028863
11,2,1,1,51,1,1,1,1,1,-0,1,-0,-0,1,-0,0.519889435032383
11,2,1,1,52,1,1,1,1,1,1,-0,-0,-0,-0,1,0.52123056241544
11,2,1,1,53,1,1,1,1,1,1,1,-0,-0,-0,-0,0.611903227283619
11,2,1,1,54,0,1,1,1,1,1,1,-0,-0,-0,-0,0.572161031595897
11,2,1,1,55,0,0,0,0,1,1,1,-1,-0,-0,-0,0.97108442307217
11,2,1,1,56,0,1,0,-0,0,1,1,1,-1,-0,-0,0.583601682155859
11,2,1,1,57,0,1,0,0,-0,0,1,-1,1,-1,-0,0.945154407003429
11,2,1,1,58,1,0,1,0,0,-0,0,-1,-1,1,-1,0.575185333611444
11,2,1,1,59,1,0,1,-1,0,0,-0,0,-1,-1,1,0.545115760411136
11,2,1,1,60,1,0,1,-1,-1,0,0,0,0,-1,-1,0.581948764098343
11,2,1,1,61,1,0,1,-1,-1,-1,0,0,0,0,-1,0.52536895906087
11,2,1,1,62,1,0,1,-1,-1,-1,-1,0,0,0,0,0.59443861519685
11,2,1,1,63,1,0,1,-1,-1,-1,-1,0,0,0,0,0.774159574357327
11,2,1,1,64,1,0,1,-1,-1,-1,-1,0,0,0,0,0.616272754385136
11,2,1,1,65,1,0,1,-1,-1,-1,-1,0,0,0,0,0.60169717943063
11,2,1,1,66,0,0,1,-1,-1,-1,-1,0,0,0,0,0.742878938268404
11,2,1,1,67,1,0,1,-0,-1,-1,-1,1,0,0,0,1.26341707463143
11,2,1,1,68,0,0,1,-1,-0,-1,-1,0,1,0,0,0.563502039003652
11,2,1,1,69,0,1,0,-0,-1,-0,-1,1,0,1,0,0.867014162475243
11,2,1,1,70,0,0,1,0,-0,-1,-0,-1,1,0,1,0.574482965457719
11,2,1,1,71,1,1,1,-0,0,-0,-1,1,-1,1,0,0.793442270543892
11,2,1,1,72,1,1,1,1,-0,0,-0,-0,1,-1,1,0.980875988025218
11,2,1,1,73,1,1,1,1,1,-0,0,-0,-0,1,-1,0.60773015540326
11,2,1,1,74,1,1,1,1,1,1,-0,-0,-0,-0,1,0.597342521476094
11,2,1,1,75,0,1,1,1,1,1,1,-0,-0,-0,-0,0.56058973481413
11,2,1,1,76,0,0,0,0,1,1,1,-1,-0,-0,-0,1.2263993092929
11,2,1,1,77,0,1,1,-0,0,1,1,1,-1,-0,-0,1.14112226705765
11,2,1,1,78,0,0,0,0,-0,0,1,-1,1,-1,-0,0.520274894312024
11,2,1,1,79,1,1,1,-0,0,-0,0,1,-1,1,-1,0.979511237586848
11,2,1,1,80,1,1,1,1,-0,0,-0,-0,1,-1,1,0.639866636716761
11,2,1,1,81,1,1,1,1,1,-0,0,-0,-0,1,-1,1.13183288881555
11,2,1,1,82,1,1,1,1,1,1,-0,-0,-0,-0,1,0.832717644691002
11,2,1,1,83,1,1,1,1,1,1,1,-0,-0,-0,-0,0.652621751418337
11,2,1,1,84,1,1,1,1,1,1,1,-0,-0,-0,-0,0.563043487491086
11,2,1,1,85,0,0,0,1,1,1,1,-0,-0,-0,-0,0.790354948665481
11,2,1,1,86,1,1,1,-0,1,1,1,1,-0,-0,-0,1.07774848880945
11,2,1,1,87,1,1,1,1,-0,1,1,-0,1,-0,-0,0.773138927295804
11,2,1,1,88,1,1,1,1,1,-0,1,-0,-0,1,-0,0.670983771095052
11,2,1,1,89,0,1,1,1,1,1,-0,-0,-0,-0,1,0.610343109583482
11,2,1,1,90,1,1,1,0,1,1,1,-1,-0,-0,-0,1.35182138724485
11,2,1,1,91,0,1,0,1,0,1,1,-0,-1,-0,-0,0.794949686387554
11,2,1,1,92,1,0,1,0,1,0,1,-1,-0,-1,-0,0.750220195972361
11,2,1,1,93,1,0,1,-1,0,1,0,0,-1,-0,-1,0.90219050901942
11,2,1,1,94,0,0,1,-1,-1,0,1,0,0,-1,-0,0.761272389790975
11,2,1,1,95,0,0,0,-0,-1,-1,0,1,0,0,-1,0
11,2,1,1,96,1,1,0,NaN,-0,-1,-1,NaN,1,0,0,0.772651950945146
11,2,1,1,97,0,1,0,1,NaN,-0,-1,-0,NaN,1,0,0.535033566469792
11,2,1,1,98,0,1,0,0,1,NaN,-0,-1,-0,NaN,1,0.587193390761968
11,2,1,1,99,0,1,0,0,0,1,NaN,-1,-1,-0,NaN,0.571456538222264
11,2,1,1,100,0,1,0,0,0,0,1,-1,-1,-1,-0,1.25791757414117
11,2,1,1,101,1,0,1,0,0,0,0,-1,-1,-1,-1,0.517735984758474
11,2,1,1,102,1,0,1,-1,0,0,0,0,-1,-1,-1,0.600610865687486
11,2,1,1,103,1,0,1,-1,-1,0,0,0,0,-1,-1,0.589769053680357
11,2,1,1,104,1,0,1,-1,-1,-1,0,0,0,0,-1,0.49913779750932
11,2,1,1,105,1,0,1,-1,-1,-1,-1,0,0,0,0,0.563575251493603
11,2,1,1,106,0,0,0,-1,-1,-1,-1,0,0,0,0,0.570828342286404
11,2,1,1,107,0,0,0,-0,-1,-1,-1,1,0,0,0,0.628272894420661
11,2,1,1,108,1,1,1,-0,-0,-1,-1,1,1,0,0,0.648008956981357
11,2,1,1,109,0,1,1,1,-0,-0,-1,-0,1,1,0,0.545610595669132
11,2,1,1,110,0,0,0,0,1,-0,-0,-1,-0,1,1,1.03329549025511
11,2,1,1,111,1,1,1,-0,0,1,-0,1,-1,-0,1,0.583832825301215
11,2,1,1,112,1,1,1,1,-0,0,1,-0,1,-1,-0,0.594430951343384
11,2,1,1,113,0,1,1,1,1,-0,0,-0,-0,1,-1,0.556353294581641
11,2,1,1,114,0,0,0,0,1,1,-0,-1,-0,-0,1,0.79421000694856
11,2,1,1,115,0,1,1,-0,0,1,1,1,-1,-0,-0,0.545878661912866
11,2,1,1,116,0,0,0,0,-0,0,1,-1,1,-1,-0,0.910786087857559
11,2,1,1,117,1,0,0,-0,0,-0,0,1,-1,1,-1,1.00377280020621
11,2,1,1,118,0,0,0,-1,-0,0,-0,0,1,-1,1,0.690000107919332
11,2,1,1,119,0,0,0,-0,-1,-0,0,1,0,1,-1,0.524466960458085
11,2,1,1,120,1,1,1,-0,-0,-1,-0,1,1,0,1,0.797745872987434
11,2,1,1,121,0,1,1,1,-0,-0,-1,-0,1,1,0,0.560612327652052
11,2,1,1,122,0,0,0,0,1,-0,-0,-1,-0,1,1,0.566970570362173
11,2,1,1,123,1,1,1,-0,0,1,-0,1,-1,-0,1,0.562697222165298
11,2,1,1,124,1,1,1,1,-0,0,1,-0,1,-1,-0,0.650615417573135
11,2,1,1,125,0,1,1,1,1,-0,0,-0,-0,1,-1,0.572915685537737
11,2,1,1,126,0,1,0,0,1,1,-0,-1,-0,-0,1,0.860125303792302
11,2,1,1,127,1,0,1,0,0,1,1,-1,-1,-0,-0,0.540014706144575
11,2,1,1,128,1,0,1,-1,0,0,1,0,-1,-1,-0,0.575834443268832
11,2,1,1,129,1,0,1,-1,-1,0,0,0,0,-1,-1,0.633929232833907
11,2,1,1,130,0,0,1,-1,-1,-1,0,0,0,0,-1,0.602540496154688
11,2,1,1,131,1,0,1,-0,-1,-1,-1,1,0,0,0,1.33444929210236
11,2,1,1,132,1,0,1,-1,-0,-1,-1,0,1,0,0,0.572145102138165
11,2,1,1,133,1,0,1,-1,-1,-0,-1,0,0,1,0,0.524319911608472
11,2,1,1,134,1,0,1,-1,-1,-1,-0,0,0,0,1,0.607315311324783
11,2,1,1,135,1,0,1,-1,-1,-1,-1,0,0,0,0,0.531425623281393
11,2,1,1,136,0,0,1,-1,-1,-1,-1,0,0,0,0,0.646946266293526
11,2,1,1,137,0,1,0,-0,-1,-1,-1,1,0,0,0,0.499800558376592
11,2,1,1,138,0,1,0,0,-0,-1,-1,-1,1,0,0,0.703377305937465
11,2,1,1,139,1,0,1,0,0,-0,-1,-1,-1,1,0,0.514128715207335
11,2,1,1,140,1,0,1,-1,0,0,-0,0,-1,-1,1,0.728372260171454
11,2,1,1,141,0,0,1,-1,-1,0,0,0,0,-1,-1,0.566364453698043
11,2,1,1,142,1,1,0,-0,-1,-1,0,1,0,0,-1,0.565588038647547
11,2,1,1,143,0,1,0,1,-0,-1,-1,-0,1,0,0,0.535179673111998
11,2,1,1,144,0,0,1,0,1,-0,-1,-1,-0,1,0,0.590270908898674
11,2,1,1,145,0,1,0,-0,0,1,-0,1,-1,-0,1,0.662994892452843
11,2,1,1,146,1,1,0,0,-0,0,1,-1,1,-1,-0,0.490053204703145
11,2,1,1,147,0,1,0,1,0,-0,0,-0,-1,1,-1,0.561059543630108
11,2,1,1,148,0,1,0,0,1,0,-0,-1,-0,-1,1,0.703451172739733
11,2,1,1,149,1,0,1,0,0,1,0,-1,-1,-0,-1,0.921604923787527
11,2,1,1,150,1,0,1,-1,0,0,1,0,-1,-1,-0,0.52667129348265
11,2,1,1,151,0,0,1,-1,-1,0,0,0,0,-1,-1,0.547795097285416
11,2,1,1,152,0,1,0,-0,-1,-1,0,1,0,0,-1,0.812112003506627
11,2,1,1,153,1,0,1,0,-0,-1,-1,-1,1,0,0,0.572246461175382
11,2,1,1,154,1,0,1,-1,0,-0,-1,0,-1,1,0,0.576207261823583
11,2,1,1,155,1,0,1,-1,-1,0,-0,0,0,-1,1,0.694879409740679
11,2,1,1,156,0,0,1,-1,-1,-1,0,0,0,0,-1,0.554482250416186
11,2,1,1,157,1,0,1,-0,-1,-1,-1,1,0,0,0,0.940594003594015
11,2,1,1,158,1,0,1,-1,-0,-1,-1,0,1,0,0,0.649605313723441
11,2,1,1,159,1,0,1,-1,-1,-0,-1,0,0,1,0,0.563827553705778
11,2,1,1,160,1,0,1,-1,-1,-1,-0,0,0,0,1,0.534061992308125
12,2,1,1,1,1,1,1,NaN,NaN,NaN,NaN,NaN,NaN,NaN,NaN,0.679951807607495
12,2,1,1,2,1,1,1,1,NaN,NaN,NaN,-0,NaN,NaN,NaN,0.681515165590099
12,2,1,1,3,1,1,1,1,1,NaN,NaN,-0,-0,NaN,NaN,0.818364917146482
12,2,1,1,4,0,1,1,1,1,1,NaN,-0,-0,-0,NaN,0.684307254822897
12,2,1,1,5,1,1,1,0,1,1,1,-1,-0,-0,-0,0.544979470565977
12,2,1,1,6,0,0,0,1,0,1,1,-0,-1,-0,-0,0.986205550635987
12,2,1,1,7,1,1,1,-0,1,0,1,1,-0,-1,-0,1.08852540674911
12,2,1,1,8,1,1,1,1,-0,1,0,-0,1,-0,-1,0.987661139198735
12,2,1,1,9,1,1,1,1,1,-0,1,-0,-0,1,-0,0.909053290917882
12,2,1,1,10,1,1,1,1,1,1,-0,-0,-0,-0,1,0.829738977087118
12,2,1,1,11,1,1,1,1,1,1,1,-0,-0,-0,-0,0.70611894153285
12,2,1,1,12,1,1,1,1,1,1,1,-0,-0,-0,-0,0.598963468587954
12,2,1,1,13,1,1,1,1,1,1,1,-0,-0,-0,-0,0.653531108089055
12,2,1,1,14,1,1,1,1,1,1,1,-0,-0,-0,-0,0.658346510594356
12,2,1,1,15,0,1,1,1,1,1,1,-0,-0,-0,-0,0.629846430397492
12,2,1,1,16,1,1,1,0,1,1,1,-1,-0,-0,-0,0.66997811790975
12,2,1,1,17,1,1,1,1,0,1,1,-0,-1,-0,-0,0.634649818053049
12,2,1,1,18,1,1,1,1,1,0,1,-0,-0,-1,-0,0.5625573485529
12,2,1,1,19,1,1,1,1,1,1,0,-0,-0,-0,-1,0.771656926182004
12,2,1,1,20,1,1,1,1,1,1,1,-0,-0,-0,-0,0.645999282236744
12,2,1,1,21,1,1,1,1,1,1,1,-0,-0,-0,-0,0.560958064645547
12,2,1,1,22,1,1,1,1,1,1,1,-0,-0,-0,-0,0.494117787698542
12,2,1,1,23,0,1,1,1,1,1,1,-0,-0,-0,-0,0.612681366223114
12,2,1,1,24,1,1,1,0,1,1,1,-1,-0,-0,-0,0.632296634398472
12,2,1,1,25,1,1,1,1,0,1,1,-0,-1,-0,-0,0.63172486475105
12,2,1,1,26,1,1,1,1,1,0,1,-0,-0,-1,-0,0.628049398020949
12,2,1,1,27,1,1,1,1,1,1,0,-0,-0,-0,-1,0.605433337899967
12,2,1,1,28,0,1,1,1,1,1,1,-0,-0,-0,-0,0.603078555651791
12,2,1,1,29,1,1,1,0,1,1,1,-1,-0,-0,-0,0.5809574561506
12,2,1,1,30,0,1,1,1,0,1,1,-0,-1,-0,-0,0.523575192055205
12,2,1,1,31,1,1,1,0,1,0,1,-1,-0,-1,-0,0.524999734347375
12,2,1,1,32,1,1,1,1,0,1,0,-0,-1,-0,-1,0.531447070636887
12,2,1,1,33,1,1,1,1,1,0,1,-0,-0,-1,-0,0.636818438296586
12,2,1,1,34,1,1,1,1,1,1,0,-0,-0,-0,-1,0.605861371770061
12,2,1,1,35,1,1,1,1,1,1,1,-0,-0,-0,-0,0.661191963256442
12,2,1,1,36,1,1,1,1,1,1,1,-0,-0,-0,-0,0.610784423734458
12,2,1,1,37,1,1,1,1,1,1,1,-0,-0,-0,-0,0.570703327842011
12,2,1,1,38,1,1,1,1,1,1,1,-0,-0,-0,-0,0.622091313660576
12,2,1,1,39,1,1,1,1,1,1,1,-0,-0,-0,-0,0.552853529504091
