sub_id,sub_idx,Cond,Order,Group,Trial_idx,Outcome,Choice_t,Correct,winstay_t1,winstay_t2,winstay_t3,winstay_t4,loseshift_t1,loseshift_t2,loseshift_t3,loseshift_t4,RT,State
1A_002,1,1,1,1,1,0,1,0,NaN,NaN,NaN,NaN,NaN,NaN,NaN,NaN,1.14187822791905,0
1A_002,1,1,1,1,2,0,1,0,0,NaN,NaN,NaN,-1,NaN,NaN,NaN,0.579900136000333,0
1A_002,1,1,1,1,3,0,0,1,0,0,NaN,NaN,-1,-1,NaN,NaN,1.05174701601277,0
1A_002,1,1,1,1,4,0,1,0,-0,0,0,NaN,1,-1,-1,NaN,0.434743007177531,0
1A_002,1,1,1,1,5,0,1,0,0,-0,0,0,-1,1,-1,-1,0.634616793867735,0
1A_002,1,1,1,1,6,0,1,0,0,0,-0,0,-1,-1,1,-1,0.625276454234381,0
1A_002,1,1,1,1,7,0,1,0,0,0,0,-0,-1,-1,-1,1,0.559192959059374,0
1A_002,1,1,1,1,8,1,0,1,0,0,0,0,-1,-1,-1,-1,0.795415898003284,0
1A_002,1,1,1,1,9,0,0,1,-1,0,0,0,0,-1,-1,-1,0.807961220861898,0
1A_002,1,1,1,1,10,1,0,1,-0,-1,0,0,1,0,-1,-1,0.651396628060866,0
1A_002,1,1,1,1,11,1,0,1,-1,-0,-1,0,0,1,0,-1,0.87223882023909,0
1A_002,1,1,1,1,12,1,0,1,-1,-1,-0,-1,0,0,1,0,0.766982954849254,0
1A_002,1,1,1,1,13,1,0,1,-1,-1,-1,-0,0,0,0,1,0.567871550871359,0
1A_002,1,1,1,1,14,1,0,1,-1,-1,-1,-1,0,0,0,0,0.593903428076828,0
1A_002,1,1,1,1,15,1,0,1,-1,-1,-1,-1,0,0,0,0,0.738914393311688,0
1A_002,1,1,1,1,16,1,0,1,-1,-1,-1,-1,0,0,0,0,0.785343689852652,0
1A_002,1,1,1,1,17,1,0,1,-1,-1,-1,-1,0,0,0,0,0.520135505774306,0
1A_002,1,1,1,1,18,1,0,1,-1,-1,-1,-1,0,0,0,0,0.677675832041132,0
1A_002,1,1,1,1,19,1,0,1,-1,-1,-1,-1,0,0,0,0,0.769853384302678,0
1A_002,1,1,1,1,20,0,0,1,-1,-1,-1,-1,0,0,0,0,0.802454563529182,0
1A_002,1,1,1,1,21,1,0,1,-0,-1,-1,-1,1,0,0,0,0.753604826173614,0
1A_002,1,1,1,1,22,0,0,1,-1,-0,-1,-1,0,1,0,0,0.65464042617873,0
1A_002,1,1,1,1,23,0,0,1,-0,-1,-0,-1,1,0,1,0,0.526221226074767,0
1A_002,1,1,1,1,24,0,0,1,-0,-0,-1,-0,1,1,0,1,0.565798853186607,0
1A_002,1,1,1,1,25,0,1,0,-0,-0,-0,-1,1,1,1,0,0.475458994399787,0
1A_002,1,1,1,1,26,0,0,1,0,-0,-0,-0,-1,1,1,1,0.571873789697293,0
1A_002,1,1,1,1,27,0,1,0,-0,0,-0,-0,1,-1,1,1,0.546643847238556,0
1A_002,1,1,1,1,28,1,0,1,0,-0,0,-0,-1,1,-1,1,0.822585496418014,0
1A_002,1,1,1,1,29,1,0,1,-1,0,-0,0,0,-1,1,-1,0.815866948580606,0
1A_002,1,1,1,1,30,1,0,1,-1,-1,0,-0,0,0,-1,1,0.618325633888617,0
1A_002,1,1,1,1,31,1,0,1,-1,-1,-1,0,0,0,0,-1,0.752938734695817,0
1A_002,1,1,1,1,32,1,0,1,-1,-1,-1,-1,0,0,0,0,0.664509698794518,0
1A_002,1,1,1,1,33,1,0,1,-1,-1,-1,-1,0,0,0,0,0.659618198313183,0
1A_002,1,1,1,1,34,1,0,1,-1,-1,-1,-1,0,0,0,0,0.650352895102742,0
1A_002,1,1,1,1,35,1,0,1,-1,-1,-1,-1,0,0,0,0,0.780064941656747,0
1A_002,1,1,1,1,36,0,0,1,-1,-1,-1,-1,0,0,0,0,0.513825575411829,0
1A_002,1,1,1,1,37,1,0,1,-0,-1,-1,-1,1,0,0,0,0.694812215969705,0
1A_002,1,1,1,1,38,1,0,1,-1,-0,-1,-1,0,1,0,0,0.530459897281389,0
1A_002,1,1,1,1,39,1,0,1,-1,-1,-0,-1,0,0,1,0,0.565034608239102,0
1A_002,1,1,1,1,40,1,0,1,-1,-1,-1,-0,0,0,0,1,0.540895216263834,0
1A_002,1,1,1,1,41,1,0,1,-1,-1,-1,-1,0,0,0,0,0.636604390437924,0
1A_002,1,1,1,1,42,1,0,1,-1,-1,-1,-1,0,0,0,0,0.647234867875795,0
1A_002,1,1,1,1,43,1,0,1,-1,-1,-1,-1,0,0,0,0,0.626982286542898,0
1A_002,1,1,1,1,44,1,0,1,-1,-1,-1,-1,0,0,0,0,0.603088083431203,0
1A_002,1,1,1,1,45,1,0,1,-1,-1,-1,-1,0,0,0,0,0.631164692378661,0
1A_002,1,1,1,1,46,1,0,1,-1,-1,-1,-1,0,0,0,0,0.64531671701252,0
1A_002,1,1,1,1,47,1,0,1,-1,-1,-1,-1,0,0,0,0,0.608453278710385,0
1A_002,1,1,1,1,48,1,0,1,-1,-1,-1,-1,0,0,0,0,0.674030767148906,0
1A_002,1,1,1,1,49,1,0,1,-1,-1,-1,-1,0,0,0,0,0.620583636187575,0
1A_002,1,1,1,1,50,1,0,1,-1,-1,-1,-1,0,0,0,0,0.598755855365198,0
1A_002,1,1,1,1,51,1,0,1,-1,-1,-1,-1,0,0,0,0,0.553388293279568,0
1A_002,1,1,1,1,52,1,0,1,-1,-1,-1,-1,0,0,0,0,0.500073710168635,0
1A_002,1,1,1,1,53,1,0,1,-1,-1,-1,-1,0,0,0,0,0.479976429841372,0
1A_002,1,1,1,1,54,1,0,1,-1,-1,-1,-1,0,0,0,0,0.535097630186101,0
1A_002,1,1,1,1,55,1,0,1,-1,-1,-1,-1,0,0,0,0,0.452624526170894,0
1A_002,1,1,1,1,56,0,0,0,-1,-1,-1,-1,0,0,0,0,0.528904381415941,1
1A_002,1,1,1,1,57,1,1,1,-0,-1,-1,-1,1,0,0,0,0.649920594525611,1
1A_002,1,1,1,1,58,1,1,1,1,-0,-1,-1,-0,1,0,0,0.602180785193013,1
1A_002,1,1,1,1,59,1,1,1,1,1,-0,-1,-0,-0,1,0,0.611651124090713,1
1A_002,1,1,1,1,60,1,1,1,1,1,1,-0,-0,-0,-0,1,0.603658553317473,1
1A_002,1,1,1,1,61,1,1,1,1,1,1,1,-0,-0,-0,-0,0.484285245803221,1
1A_002,1,1,1,1,62,1,1,1,1,1,1,1,-0,-0,-0,-0,0.610962687459505,1
1A_002,1,1,1,1,63,1,1,1,1,1,1,1,-0,-0,-0,-0,0.611567824730173,1
1A_002,1,1,1,1,64,1,1,1,1,1,1,1,-0,-0,-0,-0,0.609883785888087,1
1A_002,1,1,1,1,65,1,1,1,1,1,1,1,-0,-0,-0,-0,0.543694553972728,1
1A_002,1,1,1,1,66,0,1,1,1,1,1,1,-0,-0,-0,-0,0.690403472519392,1
1A_002,1,1,1,1,67,0,0,0,0,1,1,1,-1,-0,-0,-0,0.464881083257751,1
1A_002,1,1,1,1,68,0,0,0,-0,0,1,1,1,-1,-0,-0,1.17986307741648,1
1A_002,1,1,1,1,69,1,0,0,-0,-0,0,1,1,1,-1,-0,0.567960503768973,1
1A_002,1,1,1,1,70,0,0,0,-1,-0,-0,0,0,1,1,-1,0.575782807153701,1
1A_002,1,1,1,1,71,0,1,0,-0,-1,-0,-0,1,0,1,1,0.62706612221973,0
1A_002,1,1,1,1,72,1,0,1,0,-0,-1,-0,-1,1,0,1,0.542977945894108,0
1A_002,1,1,1,1,73,0,1,0,-1,0,-0,-1,0,-1,1,0,0.470223063916819,0
1A_002,1,1,1,1,74,1,0,1,0,-1,0,-0,-1,0,-1,1,0.528995808048876,0
1A_002,1,1,1,1,75,1,0,1,-1,0,-1,0,0,-1,0,-1,0.825985673185187,0
1A_002,1,1,1,1,76,1,0,1,-1,-1,0,-1,0,0,-1,0,0.540298557461028,0
1A_002,1,1,1,1,77,0,1,0,-1,-1,-1,0,0,0,0,-1,0.686409000080403,0
1A_002,1,1,1,1,78,0,1,0,0,-1,-1,-1,-1,0,0,0,0.477072049427989,0
1A_002,1,1,1,1,79,1,0,1,0,0,-1,-1,-1,-1,0,0,0.592150665298504,0
1A_002,1,1,1,1,80,1,0,1,-1,0,0,-1,0,-1,-1,0,0.807211566376282,0
1A_002,1,1,1,1,81,1,1,0,-1,-1,0,0,0,0,-1,-1,0.745070526357722,0
1A_002,1,1,1,1,82,1,0,1,1,-1,-1,0,-0,0,0,-1,0.552605620789564,0
1A_002,1,1,1,1,83,0,1,0,-1,1,-1,-1,0,-0,0,0,0.935306744212539,0
1A_002,1,1,1,1,84,1,0,1,0,-1,1,-1,-1,0,-0,0,0.667789545351297,0
1A_002,1,1,1,1,85,0,1,0,-1,0,-1,1,0,-1,0,-0,0.769487524393298,0
1A_002,1,1,1,1,86,0,1,0,0,-1,0,-1,-1,0,-1,0,0.492411657266075,0
1A_002,1,1,1,1,87,1,0,1,0,0,-1,0,-1,-1,0,-1,0.570947141320175,0
1A_002,1,1,1,1,88,1,0,1,-1,0,0,-1,0,-1,-1,0,0.54850854195638,0
1A_002,1,1,1,1,89,0,0,1,-1,-1,0,0,0,0,-1,-1,0.682584056218275,0
1A_002,1,1,1,1,90,0,1,0,-0,-1,-1,0,1,0,0,-1,0.418360074382235,0
1A_002,1,1,1,1,91,1,1,1,0,-0,-1,-1,-1,1,0,0,0.529270652333707,1
1A_002,1,1,1,1,92,0,1,1,1,0,-0,-1,-0,-1,1,0,0.641238055696704,1
1A_002,1,1,1,1,93,0,0,0,0,1,0,-0,-1,-0,-1,1,0.35360015404467,1
1A_002,1,1,1,1,94,1,1,1,-0,0,1,0,1,-1,-0,-1,0.870260265852266,1
1A_002,1,1,1,1,95,0,0,0,1,-0,0,1,-0,1,-1,-0,0.579617607864748,1
1A_002,1,1,1,1,96,1,1,1,-0,1,-0,0,1,-0,1,-1,0.588054360698152,1
1A_002,1,1,1,1,97,0,1,1,1,-0,1,-0,-0,1,-0,1,0.528667444797975,1
1A_002,1,1,1,1,98,0,0,0,0,1,-0,1,-1,-0,1,-0,0.480184492621902,1
1A_002,1,1,1,1,99,0,0,0,-0,0,1,-0,1,-1,-0,1,0.524505790205239,1
1A_002,1,1,1,1,100,0,0,0,-0,-0,0,1,1,1,-1,-0,0.588211997433973,1
1A_002,1,1,1,1,101,1,1,1,-0,-0,-0,0,1,1,1,-1,0.52616827115844,1
1A_002,1,1,1,1,102,1,0,0,1,-0,-0,-0,-0,1,1,1,1.00909626684097,1
1A_002,1,1,1,1,103,0,1,1,-1,1,-0,-0,0,-0,1,1,1.00629697190425,1
1A_002,1,1,1,1,104,0,1,1,0,-1,1,-0,-1,0,-0,1,0.428700349858445,1
1A_002,1,1,1,1,105,1,1,1,0,0,-1,1,-1,-1,0,-0,0.628576522735784,1
1A_002,1,1,1,1,106,0,1,0,1,0,0,-1,-0,-1,-1,0,0.693440528095834,0
1A_002,1,1,1,1,107,0,1,0,0,1,0,0,-1,-0,-1,-1,0.67445292784987,0
1A_002,1,1,1,1,108,0,1,0,0,0,1,0,-1,-1,-0,-1,0.703387651705725,0
1A_002,1,1,1,1,109,1,0,1,0,0,0,1,-1,-1,-1,-0,0.944461170404793,0
1A_002,1,1,1,1,110,0,0,0,-1,0,0,0,0,-1,-1,-1,0,0
1A_002,1,1,1,1,111,0,1,0,NaN,-1,0,0,NaN,0,-1,-1,0.614992248315957,0
1A_002,1,1,1,1,112,1,0,1,0,NaN,-1,0,-1,NaN,0,-1,0.392571654124822,0
1A_002,1,1,1,1,113,0,1,0,-1,0,NaN,-1,0,-1,NaN,0,1.05626730345102,0
1A_002,1,1,1,1,114,1,1,0,0,-1,0,NaN,-1,0,-1,NaN,0.393509597880438,0
1A_002,1,1,1,1,115,1,1,0,1,0,-1,0,-0,-1,0,-1,0.846987961465402,0
1A_002,1,1,1,1,116,0,1,0,1,1,0,-1,-0,-0,-1,0,0.744249722652512,0
1A_002,1,1,1,1,117,0,1,0,0,1,1,0,-1,-0,-0,-1,0.503079809800056,0
1A_002,1,1,1,1,118,1,0,1,0,0,1,1,-1,-1,-0,-0,0.488084288454047,0
1A_002,1,1,1,1,119,0,1,0,-1,0,0,1,0,-1,-1,-0,0.691090279819946,0
1A_002,1,1,1,1,120,1,1,0,0,-1,0,0,-1,0,-1,-1,0.539705229162337,0
1A_002,1,1,1,1,121,1,1,0,1,0,-1,0,-0,-1,0,-1,0.999832840903309,0
1A_002,1,1,1,1,122,1,0,1,1,1,0,-1,-0,-0,-1,0,0.678979605967015,0
1A_002,1,1,1,1,123,0,1,0,-1,1,1,0,0,-0,-0,-1,1.4200943070332,0
1A_002,1,1,1,1,124,0,1,0,0,-1,1,1,-1,0,-0,-0,0.662299879704733,0
1A_002,1,1,1,1,125,1,1,0,0,0,-1,1,-1,-1,0,-0,0.704240308557019,0
1A_002,1,1,1,1,126,1,1,1,1,0,0,-1,-0,-1,-1,0,0.829672961665892,1
1A_002,1,1,1,1,127,0,1,1,1,1,0,0,-0,-0,-1,-1,0.619413467707545,1
1A_002,1,1,1,1,128,0,1,1,0,1,1,0,-1,-0,-0,-1,0.664520981474652,1
1A_002,1,1,1,1,129,1,1,1,0,0,1,1,-1,-1,-0,-0,0.562708063114769,1
1A_002,1,1,1,1,130,1,1,1,1,0,0,1,-0,-1,-1,-0,0.729341768471841,1
1A_002,1,1,1,1,131,1,1,1,1,1,0,0,-0,-0,-1,-1,0.71835074649789,1
1A_002,1,1,1,1,132,1,1,1,1,1,1,0,-0,-0,-0,-1,0.526391363478069,1
1A_002,1,1,1,1,133,1,1,1,1,1,1,1,-0,-0,-0,-0,0.823083082161702,1
1A_002,1,1,1,1,134,1,1,1,1,1,1,1,-0,-0,-0,-0,0.540897536957345,1
1A_002,1,1,1,1,135,1,1,1,1,1,1,1,-0,-0,-0,-0,0.802676422823879,1
1A_002,1,1,1,1,136,1,1,1,1,1,1,1,-0,-0,-0,-0,0.758927787839184,1
1A_002,1,1,1,1,137,0,1,1,1,1,1,1,-0,-0,-0,-0,0.671110633086755,1
1A_002,1,1,1,1,138,0,0,0,0,1,1,1,-1,-0,-0,-0,0.676860025930637,1
1A_002,1,1,1,1,139,0,0,0,-0,0,1,1,1,-1,-0,-0,0.672121340355261,1
1A_002,1,1,1,1,140,0,0,0,-0,-0,0,1,1,1,-1,-0,0.480218679159407,1
1A_002,1,1,1,1,141,1,1,1,-0,-0,-0,0,1,1,1,-1,0.66304480759436,1
1A_002,1,1,1,1,142,0,1,1,1,-0,-0,-0,-0,1,1,1,0.977964049134243,1
1A_002,1,1,1,1,143,1,1,1,0,1,-0,-0,-1,-0,1,1,0.916810331346369,1
1A_002,1,1,1,1,144,1,1,1,1,0,1,-0,-0,-1,-0,1,0.730261700371557,1
1A_002,1,1,1,1,145,1,1,1,1,1,0,1,-0,-0,-1,-0,0.833923028830668,1
1A_002,1,1,1,1,146,0,1,1,1,1,1,0,-0,-0,-0,-1,0.921883264609278,1
1A_002,1,1,1,1,147,1,1,1,0,1,1,1,-1,-0,-0,-0,0.835196041622112,1
1A_002,1,1,1,1,148,1,0,0,1,0,1,1,-0,-1,-0,-0,1.06608554086051,1
1A_002,1,1,1,1,149,0,0,0,-1,1,0,1,0,-0,-1,-0,0,1
1A_002,1,1,1,1,150,0,0,0,NaN,-1,1,0,NaN,0,-0,-1,0.603920713818297,1
1A_002,1,1,1,1,151,1,1,1,-0,NaN,-1,1,1,NaN,0,-0,0.585089855445403,1
1A_002,1,1,1,1,152,1,1,1,1,-0,NaN,-1,-0,1,NaN,0,0.691194422650369,1
1A_002,1,1,1,1,153,1,1,1,1,1,-0,NaN,-0,-0,1,NaN,0.77040727317717,1
1A_002,1,1,1,1,154,1,1,1,1,1,1,-0,-0,-0,-0,1,0.453869400596432,1
1A_002,1,1,1,1,155,1,1,1,1,1,1,1,-0,-0,-0,-0,0.524407230739598,1
1A_002,1,1,1,1,156,0,1,1,1,1,1,1,-0,-0,-0,-0,1.06261077343106,1
1A_002,1,1,1,1,157,1,1,1,0,1,1,1,-1,-0,-0,-0,0.49007891961628,1
1A_002,1,1,1,1,158,0,1,1,1,0,1,1,-0,-1,-0,-0,0.580665969511756,1
1A_002,1,1,1,1,159,0,0,0,0,1,0,1,-1,-0,-1,-0,0.438533744452798,1
1A_002,1,1,1,1,160,0,0,0,-0,0,1,0,1,-1,-0,-1,0.611622847051422,1
1A_005,2,1,1,1,1,0,1,0,NaN,NaN,NaN,NaN,NaN,NaN,NaN,NaN,0.728309560358866,0
1A_005,2,1,1,1,2,0,1,0,0,NaN,NaN,NaN,-1,NaN,NaN,NaN,1.02008283739906,0
1A_005,2,1,1,1,3,1,0,1,0,0,NaN,NaN,-1,-1,NaN,NaN,0.67320475595352,0
1A_005,2,1,1,1,4,1,0,1,-1,0,0,NaN,0,-1,-1,NaN,0.577033665589624,0
1A_005,2,1,1,1,5,1,0,1,-1,-1,0,0,0,0,-1,-1,0.557926447620048,0
1A_005,2,1,1,1,6,1,1,0,-1,-1,-1,0,0,0,0,-1,0.734061647292037,0
1A_005,2,1,1,1,7,0,1,0,1,-1,-1,-1,-0,0,0,0,0.497162689171091,0
1A_005,2,1,1,1,8,0,0,1,0,1,-1,-1,-1,-0,0,0,0.991066250205222,0
1A_005,2,1,1,1,9,1,0,1,-0,0,1,-1,1,-1,-0,0,0.718028946726918,0
1A_005,2,1,1,1,10,1,0,1,-1,-0,0,1,0,1,-1,-0,0.667051270938828,0
1A_005,2,1,1,1,11,0,1,0,-1,-1,-0,0,0,0,1,-1,1.19931472297321,0
1A_005,2,1,1,1,12,1,0,1,0,-1,-1,-0,-1,0,0,1,0.941490991322098,0
1A_005,2,1,1,1,13,1,0,1,-1,0,-1,-1,0,-1,0,0,1.03101492045607,0
1A_005,2,1,1,1,14,0,0,1,-1,-1,0,-1,0,0,-1,0,0.812139720717823,0
1A_005,2,1,1,1,15,1,0,1,-0,-1,-1,0,1,0,0,-1,0.518082643592606,0
1A_005,2,1,1,1,16,0,1,0,-1,-0,-1,-1,0,1,0,0,0.899016241350182,0
1A_005,2,1,1,1,17,0,1,0,0,-1,-0,-1,-1,0,1,0,0.873012310077684,0
1A_005,2,1,1,1,18,0,0,1,0,0,-1,-0,-1,-1,0,1,0.690599249165643,0
1A_005,2,1,1,1,19,1,0,1,-0,0,0,-1,1,-1,-1,0,0.806024792243079,0
1A_005,2,1,1,1,20,0,0,1,-1,-0,0,0,0,1,-1,-1,0.862002329023198,0
1A_005,2,1,1,1,21,0,1,0,-0,-1,-0,0,1,0,1,-1,0.511809318434644,0
1A_005,2,1,1,1,22,0,0,0,0,-0,-1,-0,-1,1,0,1,0,0
1A_005,2,1,1,1,23,0,1,0,NaN,0,-0,-1,NaN,-1,1,0,0.694222328890646,0
1A_005,2,1,1,1,24,1,0,1,0,NaN,0,-0,-1,NaN,-1,1,0.652273870156023,0
1A_005,2,1,1,1,25,0,0,1,-1,0,NaN,0,0,-1,NaN,-1,0.408944415187761,0
1A_005,2,1,1,1,26,0,1,0,-0,-1,0,NaN,1,0,-1,NaN,0.531057199757925,0
1A_005,2,1,1,1,27,0,1,0,0,-0,-1,0,-1,1,0,-1,1.12361039707048,0
1A_005,2,1,1,1,28,1,0,1,0,0,-0,-1,-1,-1,1,0,1.08895063672207,0
1A_005,2,1,1,1,29,0,0,1,-1,0,0,-0,0,-1,-1,1,0.784195430836007,0
1A_005,2,1,1,1,30,0,0,1,-0,-1,0,0,1,0,-1,-1,1.14653241586893,0
1A_005,2,1,1,1,31,0,0,1,-0,-0,-1,0,1,1,0,-1,0.699139744107924,0
1A_005,2,1,1,1,32,0,1,0,-0,-0,-0,-1,1,1,1,0,0.759111778111219,0
1A_005,2,1,1,1,33,1,0,1,0,-0,-0,-0,-1,1,1,1,1.25207680098356,0
1A_005,2,1,1,1,34,1,0,1,-1,0,-0,-0,0,-1,1,1,0.548988564392857,0
1A_005,2,1,1,1,35,1,0,1,-1,-1,0,-0,0,0,-1,1,0.572634368974832,0
1A_005,2,1,1,1,36,1,0,1,-1,-1,-1,0,0,0,0,-1,0.494738297908043,0
1A_005,2,1,1,1,37,1,0,1,-1,-1,-1,-1,0,0,0,0,0.526106007345334,0
1A_005,2,1,1,1,38,0,0,1,-1,-1,-1,-1,0,0,0,0,0.497143612560649,0
1A_005,2,1,1,1,39,0,1,0,-0,-1,-1,-1,1,0,0,0,0.6361024078833,0
1A_005,2,1,1,1,40,0,1,0,0,-0,-1,-1,-1,1,0,0,0.302536865741786,0
1A_005,2,1,1,1,41,0,1,0,0,0,-0,-1,-1,-1,1,0,0.603624813962597,0
1A_005,2,1,1,1,42,0,0,0,0,0,0,-0,-1,-1,-1,1,0,0
1A_005,2,1,1,1,43,1,0,1,NaN,0,0,0,NaN,-1,-1,-1,0.618708092439192,0
1A_005,2,1,1,1,44,0,0,1,-1,NaN,0,0,0,NaN,-1,-1,0.41220435764717,0
1A_005,2,1,1,1,45,1,1,0,-0,-1,NaN,0,1,0,NaN,-1,0.512221347492414,0
1A_005,2,1,1,1,46,1,1,0,1,-0,-1,NaN,-0,1,0,NaN,0.884242278634702,0
1A_005,2,1,1,1,47,0,1,0,1,1,-0,-1,-0,-0,1,0,0.941005670521008,0
1A_005,2,1,1,1,48,0,1,0,0,1,1,-0,-1,-0,-0,1,0.413962230049037,0
1A_005,2,1,1,1,49,0,1,0,0,0,1,1,-1,-1,-0,-0,0.451979734819361,0
1A_005,2,1,1,1,50,1,0,1,0,0,0,1,-1,-1,-1,-0,0.775565229377207,0
1A_005,2,1,1,1,51,0,0,1,-1,0,0,0,0,-1,-1,-1,0.551003785917601,0
1A_005,2,1,1,1,52,1,0,1,-0,-1,0,0,1,0,-1,-1,0.718191957349518,0
1A_005,2,1,1,1,53,1,0,1,-1,-0,-1,0,0,1,0,-1,0.405720204699719,0
1A_005,2,1,1,1,54,1,0,1,-1,-1,-0,-1,0,0,1,0,0.452344132497274,0
1A_005,2,1,1,1,55,1,0,1,-1,-1,-1,-0,0,0,0,1,0.512431921995812,0
1A_005,2,1,1,1,56,0,0,0,-1,-1,-1,-1,0,0,0,0,0.467826280545523,1
1A_005,2,1,1,1,57,0,0,0,-0,-1,-1,-1,1,0,0,0,0.478150676486621,1
1A_005,2,1,1,1,58,1,0,0,-0,-0,-1,-1,1,1,0,0,0.648224458426739,1
1A_005,2,1,1,1,59,0,0,0,-1,-0,-0,-1,0,1,1,0,1.35389407452203,1
1A_005,2,1,1,1,60,0,0,0,-0,-1,-0,-0,1,0,1,1,0,1
1A_005,2,1,1,1,61,0,0,0,NaN,-0,-1,-0,NaN,1,0,1,0.345416116711021,1
1A_005,2,1,1,1,62,1,1,1,-0,NaN,-0,-1,1,NaN,1,0,0.425331333893155,1
1A_005,2,1,1,1,63,1,1,1,1,-0,NaN,-0,-0,1,NaN,1,0.5142633417654,1
1A_005,2,1,1,1,64,1,1,1,1,1,-0,NaN,-0,-0,1,NaN,0.500230206805099,1
1A_005,2,1,1,1,65,1,1,1,1,1,1,-0,-0,-0,-0,1,0.449932605332833,1
1A_005,2,1,1,1,66,1,1,1,1,1,1,1,-0,-0,-0,-0,0.422417271199265,1
1A_005,2,1,1,1,67,0,1,1,1,1,1,1,-0,-0,-0,-0,0.492739687302674,1
1A_005,2,1,1,1,68,0,0,0,0,1,1,1,-1,-0,-0,-0,0.455025935035337,1
1A_005,2,1,1,1,69,0,1,1,-0,0,1,1,1,-1,-0,-0,1.08131838625741,1
1A_005,2,1,1,1,70,0,0,0,0,-0,0,1,-1,1,-1,-0,0.451725874218937,1
1A_005,2,1,1,1,71,1,0,1,-0,0,-0,0,1,-1,1,-1,1.20015786571821,0
1A_005,2,1,1,1,72,0,1,0,-1,-0,0,-0,0,1,-1,1,0.324611636765439,0
1A_005,2,1,1,1,73,1,0,1,0,-1,-0,0,-1,0,1,-1,0.562685465486538,0
1A_005,2,1,1,1,74,1,0,1,-1,0,-1,-0,0,-1,0,1,0.49156359137487,0
1A_005,2,1,1,1,75,0,0,1,-1,-1,0,-1,0,0,-1,0,0.486720440275349,0
1A_005,2,1,1,1,76,1,0,1,-0,-1,-1,0,1,0,0,-1,0.656818065473999,0
1A_005,2,1,1,1,77,1,1,0,-1,-0,-1,-1,0,1,0,0,0.457015193121151,0
1A_005,2,1,1,1,78,0,1,0,1,-1,-0,-1,-0,0,1,0,0.473890091457179,0
1A_005,2,1,1,1,79,1,1,0,0,1,-1,-0,-1,-0,0,1,0.505272228478134,0
1A_005,2,1,1,1,80,1,0,1,1,0,1,-1,-0,-1,-0,0,0.677203887498763,0
1A_005,2,1,1,1,81,0,0,1,-1,1,0,1,0,-0,-1,-0,0.468716523371768,0
1A_005,2,1,1,1,82,0,1,0,-0,-1,1,0,1,0,-0,-1,0.452445409950997,0
1A_005,2,1,1,1,83,1,0,1,0,-0,-1,1,-1,1,0,-0,0.491294979733539,0
1A_005,2,1,1,1,84,1,0,1,-1,0,-0,-1,0,-1,1,0,0.475007915006245,0
1A_005,2,1,1,1,85,0,0,1,-1,-1,0,-0,0,0,-1,1,0.476056454604077,0
1A_005,2,1,1,1,86,1,0,1,-0,-1,-1,0,1,0,0,-1,0.915391987756266,0
1A_005,2,1,1,1,87,0,1,0,-1,-0,-1,-1,0,1,0,0,0.671629855613901,0
1A_005,2,1,1,1,88,1,1,0,0,-1,-0,-1,-1,0,1,0,0.6404906671969,0
1A_005,2,1,1,1,89,1,0,1,1,0,-1,-0,-0,-1,0,1,0.942643615232555,0
1A_005,2,1,1,1,90,0,0,1,-1,1,0,-1,0,-0,-1,0,0.468213551777808,0
1A_005,2,1,1,1,91,0,0,0,-0,-1,1,0,1,0,-0,-1,1.45722821928302,1
1A_005,2,1,1,1,92,1,1,1,-0,-0,-1,1,1,1,0,-0,0.496511513129917,1
1A_005,2,1,1,1,93,0,1,1,1,-0,-0,-1,-0,1,1,0,0.50644940705115,1
1A_005,2,1,1,1,94,0,0,0,0,1,-0,-0,-1,-0,1,1,0.468949061206331,1
1A_005,2,1,1,1,95,0,0,0,-0,0,1,-0,1,-1,-0,1,0.459162426863259,1
1A_005,2,1,1,1,96,1,1,1,-0,-0,0,1,1,1,-1,-0,0.677985421713856,1
1A_005,2,1,1,1,97,1,1,1,1,-0,-0,0,-0,1,1,-1,1.15695027517177,1
1A_005,2,1,1,1,98,1,1,1,1,1,-0,-0,-0,-0,1,1,0.761381441321646,1
1A_005,2,1,1,1,99,1,1,1,1,1,1,-0,-0,-0,-0,1,0.557523403181222,1
1A_005,2,1,1,1,100,1,1,1,1,1,1,1,-0,-0,-0,-0,0.654934884233626,1
1A_005,2,1,1,1,101,1,1,1,1,1,1,1,-0,-0,-0,-0,0.343718426354826,1
1A_005,2,1,1,1,102,1,1,1,1,1,1,1,-0,-0,-0,-0,0.527299079751174,1
1A_005,2,1,1,1,103,1,1,1,1,1,1,1,-0,-0,-0,-0,0.56250838782762,1
1A_005,2,1,1,1,104,1,1,1,1,1,1,1,-0,-0,-0,-0,0.467983715210721,1
1A_005,2,1,1,1,105,0,0,0,1,1,1,1,-0,-0,-0,-0,1.09671843370688,1
1A_005,2,1,1,1,106,1,0,1,-0,1,1,1,1,-0,-0,-0,0.423654922861715,0
1A_005,2,1,1,1,107,1,0,1,-1,-0,1,1,0,1,-0,-0,0.49296415308072,0
1A_005,2,1,1,1,108,1,0,1,-1,-1,-0,1,0,0,1,-0,0.970076279710156,0
1A_005,2,1,1,1,109,1,0,1,-1,-1,-1,-0,0,0,0,1,0.707125906966212,0
1A_005,2,1,1,1,110,1,0,1,-1,-1,-1,-1,0,0,0,0,0.506113501654909,0
1A_005,2,1,1,1,111,1,0,1,-1,-1,-1,-1,0,0,0,0,1.36512360968663,0
1A_005,2,1,1,1,112,1,0,1,-1,-1,-1,-1,0,0,0,0,0.532669491791239,0
1A_005,2,1,1,1,113,0,0,1,-1,-1,-1,-1,0,0,0,0,1.14104335693537,0
1A_005,2,1,1,1,114,0,1,0,-0,-1,-1,-1,1,0,0,0,0.403498864559879,0
1A_005,2,1,1,1,115,1,0,1,0,-0,-1,-1,-1,1,0,0,0.447425938042215,0
1A_005,2,1,1,1,116,1,0,1,-1,0,-0,-1,0,-1,1,0,0.99035246886524,0
1A_005,2,1,1,1,117,1,0,1,-1,-1,0,-0,0,0,-1,1,0.481945149983403,0
1A_005,2,1,1,1,118,1,0,1,-1,-1,-1,0,0,0,0,-1,0.64984248179735,0
1A_005,2,1,1,1,119,1,1,0,-1,-1,-1,-1,0,0,0,0,0.686175954248938,0
1A_005,2,1,1,1,120,0,1,0,1,-1,-1,-1,-0,0,0,0,0.628276125667071,0
1A_005,2,1,1,1,121,1,0,1,0,1,-1,-1,-1,-0,0,0,0.741418096548841,0
1A_005,2,1,1,1,122,0,1,0,-1,0,1,-1,0,-1,-0,0,0.706483833165294,0
1A_005,2,1,1,1,123,1,0,1,0,-1,0,1,-1,0,-1,-0,0.477924771859762,0
1A_005,2,1,1,1,124,0,0,1,-1,0,-1,0,0,-1,0,-1,0.492007195247425,0
1A_005,2,1,1,1,125,1,0,1,-0,-1,0,-1,1,0,-1,0,1.213998395413,0
1A_005,2,1,1,1,126,0,0,0,-1,-0,-1,0,0,1,0,-1,0.865211500098667,1
1A_005,2,1,1,1,127,0,0,0,-0,-1,-0,-1,1,0,1,0,0.986628913311506,1
1A_005,2,1,1,1,128,0,0,0,-0,-0,-1,-0,1,1,0,1,0.815527412978554,1
1A_005,2,1,1,1,129,1,1,1,-0,-0,-0,-1,1,1,1,0,0.472806899858369,1
1A_005,2,1,1,1,130,0,1,1,1,-0,-0,-0,-0,1,1,1,0.455431733869773,1
1A_005,2,1,1,1,131,1,1,1,0,1,-0,-0,-1,-0,1,1,0.528353100074128,1
1A_005,2,1,1,1,132,1,0,0,1,0,1,-0,-0,-1,-0,1,0.486365417837987,1
1A_005,2,1,1,1,133,0,0,0,-1,1,0,1,0,-0,-1,-0,0.486140194875588,1
1A_005,2,1,1,1,134,1,0,0,-0,-1,1,0,1,0,-0,-1,1.2206173527311,1
1A_005,2,1,1,1,135,0,0,0,-1,-0,-1,1,0,1,0,-0,1.17238961629573,1
1A_005,2,1,1,1,136,1,0,0,-0,-1,-0,-1,1,0,1,0,0.465131253362415,1
1A_005,2,1,1,1,137,1,1,1,-1,-0,-1,-0,0,1,0,1,0.413681191043906,1
1A_005,2,1,1,1,138,1,0,0,1,-1,-0,-1,-0,0,1,0,0.544301913341769,1
1A_005,2,1,1,1,139,1,1,1,-1,1,-1,-0,0,-0,0,1,0.487423886696888,1
1A_005,2,1,1,1,140,0,0,0,1,-1,1,-1,-0,0,-0,0,0.459589943762694,1
1A_005,2,1,1,1,141,1,1,1,-0,1,-1,1,1,-0,0,-0,0.457857368170153,1
1A_005,2,1,1,1,142,1,1,1,1,-0,1,-1,-0,1,-0,0,0.616513357637814,1
1A_005,2,1,1,1,143,1,1,1,1,1,-0,1,-0,-0,1,-0,0.465471163876828,1
1A_005,2,1,1,1,144,1,1,1,1,1,1,-0,-0,-0,-0,1,0.627005816545534,1
1A_005,2,1,1,1,145,0,1,1,1,1,1,1,-0,-0,-0,-0,0.630993001233037,1
1A_005,2,1,1,1,146,1,0,0,0,1,1,1,-1,-0,-0,-0,0.535545415966226,1
1A_005,2,1,1,1,147,0,0,0,-1,0,1,1,0,-1,-0,-0,0.722812271315888,1
1A_005,2,1,1,1,148,0,0,0,-0,-1,0,1,1,0,-1,-0,0.843827955638517,1
1A_005,2,1,1,1,149,1,1,1,-0,-0,-1,0,1,1,0,-1,0.674865749648234,1
1A_005,2,1,1,1,150,1,1,1,1,-0,-0,-1,-0,1,1,0,0.476337483584757,1
1A_005,2,1,1,1,151,0,1,1,1,1,-0,-0,-0,-0,1,1,0.447589001460983,1
1A_005,2,1,1,1,152,0,0,0,0,1,1,-0,-1,-0,-0,1,0.858093626427035,1
1A_005,2,1,1,1,153,1,0,0,-0,0,1,1,1,-1,-0,-0,0.597749436122285,1
1A_005,2,1,1,1,154,1,0,0,-1,-0,0,1,0,1,-1,-0,0.499250801124617,1
1A_005,2,1,1,1,155,1,0,0,-1,-1,-0,0,0,0,1,-1,0.435376086571523,1
1A_005,2,1,1,1,156,1,0,0,-1,-1,-1,-0,0,0,0,1,0.430842301356279,1
1A_005,2,1,1,1,157,0,0,0,-1,-1,-1,-1,0,0,0,0,0.765494372918511,1
1A_005,2,1,1,1,158,0,0,0,-0,-1,-1,-1,1,0,0,0,0.557176966387487,1
1A_005,2,1,1,1,159,1,1,1,-0,-0,-1,-1,1,1,0,0,0.729367229598211,1
1A_005,2,1,1,1,160,1,1,1,1,-0,-0,-1,-0,1,1,0,0.599534006421891,1
1A_009,3,1,1,1,1,0,0,0,NaN,NaN,NaN,NaN,NaN,NaN,NaN,NaN,0,1
1A_009,3,1,1,1,2,0,0,0,NaN,NaN,NaN,NaN,NaN,NaN,NaN,NaN,0.439773398002217,1
1A_009,3,1,1,1,3,0,0,0,-0,NaN,NaN,NaN,1,NaN,NaN,NaN,0.570631595865962,1
1A_009,3,1,1,1,4,0,0,0,-0,-0,NaN,NaN,1,1,NaN,NaN,1.0189598311872,1
1A_009,3,1,1,1,5,1,0,0,-0,-0,-0,NaN,1,1,1,NaN,0.665091622865475,1
1A_009,3,1,1,1,6,0,0,0,-1,-0,-0,-0,0,1,1,1,0,1
1A_009,3,1,1,1,7,0,0,0,NaN,-1,-0,-0,NaN,0,1,1,0.300313979823841,1
1A_009,3,1,1,1,8,0,0,0,-0,NaN,-1,-0,1,NaN,0,1,0.362922821427674,1
1A_009,3,1,1,1,9,1,1,1,-0,-0,NaN,-1,1,1,NaN,0,1.12182877163195,1
1A_009,3,1,1,1,10,0,0,0,1,-0,-0,NaN,-0,1,1,NaN,0.981825920665869,1
1A_009,3,1,1,1,11,1,1,1,-0,1,-0,-0,1,-0,1,1,0.957954173697544,1
1A_009,3,1,1,1,12,1,1,1,1,-0,1,-0,-0,1,-0,1,0.639138230409117,1
1A_009,3,1,1,1,13,1,1,1,1,1,-0,1,-0,-0,1,-0,1.0208158383648,1
1A_009,3,1,1,1,14,1,1,1,1,1,1,-0,-0,-0,-0,1,0.866813196243129,1
1A_009,3,1,1,1,15,1,1,1,1,1,1,1,-0,-0,-0,-0,0.841944987251736,1
1A_009,3,1,1,1,16,0,1,1,1,1,1,1,-0,-0,-0,-0,1.25058993306993,1
1A_009,3,1,1,1,17,1,0,0,0,1,1,1,-1,-0,-0,-0,1.01769083293493,1
1A_009,3,1,1,1,18,0,0,0,-1,0,1,1,0,-1,-0,-0,0.940305707611515,1
1A_009,3,1,1,1,19,0,0,0,-0,-1,0,1,1,0,-1,-0,0.773832220057557,1
1A_009,3,1,1,1,20,1,1,1,-0,-0,-1,0,1,1,0,-1,0.491948331088679,1
1A_009,3,1,1,1,21,1,1,1,1,-0,-0,-1,-0,1,1,0,0.71075531214592,1
1A_009,3,1,1,1,22,1,1,1,1,1,-0,-0,-0,-0,1,1,0.909356059973106,1
1A_009,3,1,1,1,23,1,1,1,1,1,1,-0,-0,-0,-0,1,0.764253493369324,1
1A_009,3,1,1,1,24,0,1,1,1,1,1,1,-0,-0,-0,-0,0.720808465350274,1
1A_009,3,1,1,1,25,1,1,1,0,1,1,1,-1,-0,-0,-0,0.775247385445255,1
1A_009,3,1,1,1,26,0,1,1,1,0,1,1,-0,-1,-0,-0,0.790238636401227,1
1A_009,3,1,1,1,27,0,1,1,0,1,0,1,-1,-0,-1,-0,1.14357726044,1
1A_009,3,1,1,1,28,0,0,0,0,0,1,0,-1,-1,-0,-1,0.688917342039531,1
1A_009,3,1,1,1,29,1,1,1,-0,0,0,1,1,-1,-1,-0,0.867668548487018,1
1A_009,3,1,1,1,30,1,1,1,1,-0,0,0,-0,1,-1,-1,0.667735207022815,1
1A_009,3,1,1,1,31,1,1,1,1,1,-0,0,-0,-0,1,-1,0.6141475348104,1
1A_009,3,1,1,1,32,1,1,1,1,1,1,-0,-0,-0,-0,1,0.553221604787723,1
1A_009,3,1,1,1,33,0,0,0,1,1,1,1,-0,-0,-0,-0,1.22106958268068,1
1A_009,3,1,1,1,34,1,1,1,-0,1,1,1,1,-0,-0,-0,0.843469810236456,1
1A_009,3,1,1,1,35,1,1,1,1,-0,1,1,-0,1,-0,-0,0.792436867412107,1
1A_009,3,1,1,1,36,1,1,1,1,1,-0,1,-0,-0,1,-0,0.824118300714872,1
1A_009,3,1,1,1,37,1,1,1,1,1,1,-0,-0,-0,-0,1,0.914518471130577,1
1A_009,3,1,1,1,38,0,1,1,1,1,1,1,-0,-0,-0,-0,0.650486863904007,1
1A_009,3,1,1,1,39,1,1,1,0,1,1,1,-1,-0,-0,-0,0.611169613422135,1
1A_009,3,1,1,1,40,1,1,1,1,0,1,1,-0,-1,-0,-0,0.946039319404008,1
1A_009,3,1,1,1,41,1,1,1,1,1,0,1,-0,-0,-1,-0,1.02762993480701,1
1A_009,3,1,1,1,42,1,1,1,1,1,1,0,-0,-0,-0,-1,0.692030786889518,1
1A_009,3,1,1,1,43,1,1,1,1,1,1,1,-0,-0,-0,-0,0.728196373806895,1
1A_009,3,1,1,1,44,0,1,1,1,1,1,1,-0,-0,-0,-0,0.70486006576084,1
1A_009,3,1,1,1,45,1,1,1,0,1,1,1,-1,-0,-0,-0,0.787876307110309,1
1A_009,3,1,1,1,46,1,1,1,1,0,1,1,-0,-1,-0,-0,0.895212397291289,1
1A_009,3,1,1,1,47,0,1,1,1,1,0,1,-0,-0,-1,-0,0.685192303193617,1
1A_009,3,1,1,1,48,1,1,1,0,1,1,0,-1,-0,-0,-1,0.874041502403998,1
1A_009,3,1,1,1,49,0,1,1,1,0,1,1,-0,-1,-0,-0,1.1308805230783,1
1A_009,3,1,1,1,50,1,1,1,0,1,0,1,-1,-0,-1,-0,1.04386770943711,1
1A_009,3,1,1,1,51,0,1,1,1,0,1,0,-0,-1,-0,-1,0.822088523960701,1
1A_009,3,1,1,1,52,0,0,0,0,1,0,1,-1,-0,-1,-0,0.641497961018104,1
1A_009,3,1,1,1,53,1,1,1,-0,0,1,0,1,-1,-0,-1,0.709492792389938,1
1A_009,3,1,1,1,54,1,1,1,1,-0,0,1,-0,1,-1,-0,0.906182079881546,1
1A_009,3,1,1,1,55,0,0,0,1,1,-0,0,-0,-0,1,-1,0.818540652660886,1
1A_009,3,1,1,1,56,0,1,0,-0,1,1,-0,1,-0,-0,1,0.777823990617435,0
1A_009,3,1,1,1,57,1,1,0,0,-0,1,1,-1,1,-0,-0,0.736025280100876,0
1A_009,3,1,1,1,58,0,1,0,1,0,-0,1,-0,-1,1,-0,0.717015064140469,0
1A_009,3,1,1,1,59,0,1,0,0,1,0,-0,-1,-0,-1,1,0.768927862076453,0
1A_009,3,1,1,1,60,1,1,0,0,0,1,0,-1,-1,-0,-1,0.642203865444571,0
1A_009,3,1,1,1,61,1,0,1,1,0,0,1,-0,-1,-1,-0,0.858314941841854,0
1A_009,3,1,1,1,62,1,0,1,-1,1,0,0,0,-0,-1,-1,0.969736489489151,0
1A_009,3,1,1,1,63,1,0,1,-1,-1,1,0,0,0,-0,-1,0.612565722248291,0
1A_009,3,1,1,1,64,0,1,0,-1,-1,-1,1,0,0,0,-0,0.632213726537884,0
1A_009,3,1,1,1,65,1,0,1,0,-1,-1,-1,-1,0,0,0,0.556355604860983,0
1A_009,3,1,1,1,66,1,0,1,-1,0,-1,-1,0,-1,0,0,0.728353713238903,0
1A_009,3,1,1,1,67,0,0,1,-1,-1,0,-1,0,0,-1,0,1.24538146705163,0
1A_009,3,1,1,1,68,1,0,1,-0,-1,-1,0,1,0,0,-1,0.518934472226647,0
1A_009,3,1,1,1,69,1,0,1,-1,-0,-1,-1,0,1,0,0,0.690115843043714,0
1A_009,3,1,1,1,70,1,0,1,-1,-1,-0,-1,0,0,1,0,0.669013716179506,0
1A_009,3,1,1,1,71,0,0,0,-1,-1,-1,-0,0,0,0,1,1.14288453788777,1
1A_009,3,1,1,1,72,0,0,0,-0,-1,-1,-1,1,0,0,0,0.854181773132041,1
1A_009,3,1,1,1,73,0,0,0,-0,-0,-1,-1,1,1,0,0,0.577981787167118,1
1A_009,3,1,1,1,74,1,1,1,-0,-0,-0,-1,1,1,1,0,0.579479095590614,1
1A_009,3,1,1,1,75,1,1,1,1,-0,-0,-0,-0,1,1,1,0.605861073222513,1
1A_009,3,1,1,1,76,0,1,1,1,1,-0,-0,-0,-0,1,1,0.717414109473793,1
1A_009,3,1,1,1,77,1,1,1,0,1,1,-0,-1,-0,-0,1,0.926115513905643,1
1A_009,3,1,1,1,78,1,1,1,1,0,1,1,-0,-1,-0,-0,0.777491019724948,1
1A_009,3,1,1,1,79,1,1,1,1,1,0,1,-0,-0,-1,-0,1.23871579325441,1
1A_009,3,1,1,1,80,1,1,1,1,1,1,0,-0,-0,-0,-1,0.964434071581309,1
1A_009,3,1,1,1,81,0,1,1,1,1,1,1,-0,-0,-0,-0,0.723753839213714,1
1A_009,3,1,1,1,82,1,1,1,0,1,1,1,-1,-0,-0,-0,1.35591850087076,1
1A_009,3,1,1,1,83,1,1,1,1,0,1,1,-0,-1,-0,-0,0.921521566694537,1
1A_009,3,1,1,1,84,1,1,1,1,1,0,1,-0,-0,-1,-0,0.771291432065482,1
1A_009,3,1,1,1,85,1,1,1,1,1,1,0,-0,-0,-0,-1,0.973203826349163,1
1A_009,3,1,1,1,86,0,0,0,1,1,1,1,-0,-0,-0,-0,1.25989476521045,1
1A_009,3,1,1,1,87,1,1,1,-0,1,1,1,1,-0,-0,-0,0.590407384375794,1
1A_009,3,1,1,1,88,0,1,1,1,-0,1,1,-0,1,-0,-0,1.20000556359355,1
1A_009,3,1,1,1,89,0,1,1,0,1,-0,1,-1,-0,1,-0,1.07495136951275,1
1A_009,3,1,1,1,90,1,1,1,0,0,1,-0,-1,-1,-0,1,0.669814878352554,1
1A_009,3,1,1,1,91,1,1,0,1,0,0,1,-0,-1,-1,-0,0.731168032225469,0
1A_009,3,1,1,1,92,0,1,0,1,1,0,0,-0,-0,-1,-1,0.70460212285434,0
1A_009,3,1,1,1,93,1,1,0,0,1,1,0,-1,-0,-0,-1,0.6341702419586,0
1A_009,3,1,1,1,94,1,1,0,1,0,1,1,-0,-1,-0,-0,1.29755077138452,0
1A_009,3,1,1,1,95,0,1,0,1,1,0,1,-0,-0,-1,-0,0.711156906040742,0
1A_009,3,1,1,1,96,0,1,0,0,1,1,0,-1,-0,-0,-1,0.601521833345942,0
1A_009,3,1,1,1,97,0,0,0,0,0,1,1,-1,-1,-0,-0,0,0
1A_009,3,1,1,1,98,0,1,0,NaN,0,0,1,NaN,-1,-1,-0,0.394260785519691,0
1A_009,3,1,1,1,99,1,0,1,0,NaN,0,0,-1,NaN,-1,-1,0.666368673124452,0
1A_009,3,1,1,1,100,1,0,1,-1,0,NaN,0,0,-1,NaN,-1,0.701632672496999,0
1A_009,3,1,1,1,101,0,0,1,-1,-1,0,NaN,0,0,-1,NaN,0.528362282510898,0
1A_009,3,1,1,1,102,1,0,1,-0,-1,-1,0,1,0,0,-1,0.616263710332532,0
1A_009,3,1,1,1,103,1,0,1,-1,-0,-1,-1,0,1,0,0,0.859346735524014,0
1A_009,3,1,1,1,104,1,0,1,-1,-1,-0,-1,0,0,1,0,0.650705031961479,0
1A_009,3,1,1,1,105,1,0,1,-1,-1,-1,-0,0,0,0,1,0.79128347195001,0
1A_009,3,1,1,1,106,0,0,0,-1,-1,-1,-1,0,0,0,0,0.759966536570573,1
1A_009,3,1,1,1,107,1,0,0,-0,-1,-1,-1,1,0,0,0,0.840563579678928,1
1A_009,3,1,1,1,108,0,0,0,-1,-0,-1,-1,0,1,0,0,0.757834497288968,1
1A_009,3,1,1,1,109,0,0,0,-0,-1,-0,-1,1,0,1,0,0.759418241904314,1
1A_009,3,1,1,1,110,1,0,0,-0,-0,-1,-0,1,1,0,1,0.78610904877587,1
1A_009,3,1,1,1,111,1,0,0,-1,-0,-0,-1,0,1,1,0,0.60456185379644,1
1A_009,3,1,1,1,112,1,0,0,-1,-1,-0,-0,0,0,1,1,1.00152563363099,1
1A_009,3,1,1,1,113,1,0,0,-1,-1,-1,-0,0,0,0,1,1.0253199006238,1
1A_009,3,1,1,1,114,0,0,0,-1,-1,-1,-1,0,0,0,0,1.05723827785823,1
1A_009,3,1,1,1,115,1,1,1,-0,-1,-1,-1,1,0,0,0,0.679909428035899,1
1A_009,3,1,1,1,116,1,1,1,1,-0,-1,-1,-0,1,0,0,0.674181422275069,1
1A_009,3,1,1,1,117,1,1,1,1,1,-0,-1,-0,-0,1,0,0.793490045678482,1
1A_009,3,1,1,1,118,0,0,0,1,1,1,-0,-0,-0,-0,1,0,1
1A_009,3,1,1,1,119,1,1,1,NaN,1,1,1,NaN,-0,-0,-0,0.680818115595685,1
1A_009,3,1,1,1,120,1,1,1,1,NaN,1,1,-0,NaN,-0,-0,1.03015906431392,1
1A_009,3,1,1,1,121,1,1,1,1,1,NaN,1,-0,-0,NaN,-0,0.807642261926048,1
1A_009,3,1,1,1,122,1,1,1,1,1,1,NaN,-0,-0,-0,NaN,0.64327476467497,1
1A_009,3,1,1,1,123,0,1,1,1,1,1,1,-0,-0,-0,-0,0.758346510975571,1
1A_009,3,1,1,1,124,1,0,0,0,1,1,1,-1,-0,-0,-0,1.0024180063283,1
1A_009,3,1,1,1,125,0,0,0,-1,0,1,1,0,-1,-0,-0,0.856206394957553,1
1A_009,3,1,1,1,126,0,0,1,-0,-1,0,1,1,0,-1,-0,0.76667757888481,0
1A_009,3,1,1,1,127,0,0,1,-0,-0,-1,0,1,1,0,-1,0.739746670364184,0
1A_009,3,1,1,1,128,0,1,0,-0,-0,-0,-1,1,1,1,0,0.761940399375817,0
1A_009,3,1,1,1,129,0,1,0,0,-0,-0,-0,-1,1,1,1,1.41873335349374,0
1A_009,3,1,1,1,130,0,1,0,0,0,-0,-0,-1,-1,1,1,0.59491305823849,0
1A_009,3,1,1,1,131,1,0,1,0,0,0,-0,-1,-1,-1,1,1.09843333645222,0
1A_009,3,1,1,1,132,0,0,1,-1,0,0,0,0,-1,-1,-1,0.962373481873328,0
1A_009,3,1,1,1,133,1,0,1,-0,-1,0,0,1,0,-1,-1,0.667935203347042,0
1A_009,3,1,1,1,134,1,0,1,-1,-0,-1,0,0,1,0,-1,1.2826798721544,0
1A_009,3,1,1,1,135,1,0,1,-1,-1,-0,-1,0,0,1,0,1.13065885881224,0
1A_009,3,1,1,1,136,1,0,1,-1,-1,-1,-0,0,0,0,1,1.00305941082661,0
1A_009,3,1,1,1,137,1,0,1,-1,-1,-1,-1,0,0,0,0,1.30806970531194,0
1A_009,3,1,1,1,138,1,0,1,-1,-1,-1,-1,0,0,0,0,0.552013788690601,0
1A_009,3,1,1,1,139,1,0,1,-1,-1,-1,-1,0,0,0,0,0.875295212970741,0
1A_009,3,1,1,1,140,1,1,0,-1,-1,-1,-1,0,0,0,0,1.10536330601099,0
1A_009,3,1,1,1,141,1,1,0,1,-1,-1,-1,-0,0,0,0,0.552218909870135,0
1A_009,3,1,1,1,142,0,0,1,1,1,-1,-1,-0,-0,0,0,0.594578358122817,0
1A_009,3,1,1,1,143,0,1,0,-0,1,1,-1,1,-0,-0,0,0.891082902558992,0
1A_009,3,1,1,1,144,0,1,0,0,-0,1,1,-1,1,-0,-0,0.661762529112821,0
1A_009,3,1,1,1,145,0,1,0,0,0,-0,1,-1,-1,1,-0,0.664722391042233,0
1A_009,3,1,1,1,146,0,1,0,0,0,0,-0,-1,-1,-1,1,1.05047333384573,0
1A_009,3,1,1,1,147,1,0,1,0,0,0,0,-1,-1,-1,-1,0.917042846354889,0
1A_009,3,1,1,1,148,1,0,1,-1,0,0,0,0,-1,-1,-1,1.47553315200093,0
1A_009,3,1,1,1,149,1,0,1,-1,-1,0,0,0,0,-1,-1,1.05748357987977,0
1A_009,3,1,1,1,150,1,0,1,-1,-1,-1,0,0,0,0,-1,0.822439581375875,0
1A_009,3,1,1,1,151,0,0,1,-1,-1,-1,-1,0,0,0,0,0.725577272136434,0
1A_009,3,1,1,1,152,1,0,1,-0,-1,-1,-1,1,0,0,0,0.876265606631932,0
1A_009,3,1,1,1,153,1,0,1,-1,-0,-1,-1,0,1,0,0,0.908626101441769,0
1A_009,3,1,1,1,154,1,0,1,-1,-1,-0,-1,0,0,1,0,1.22221244006141,0
1A_009,3,1,1,1,155,1,0,1,-1,-1,-1,-0,0,0,0,1,1.0642206835364,0
1A_009,3,1,1,1,156,1,0,1,-1,-1,-1,-1,0,0,0,0,1.11545935134745,0
1A_009,3,1,1,1,157,0,0,0,-1,-1,-1,-1,0,0,0,0,0,0
1A_009,3,1,1,1,158,0,0,1,NaN,-1,-1,-1,NaN,0,0,0,0.660440902271148,0
1A_009,3,1,1,1,159,1,0,1,-0,NaN,-1,-1,1,NaN,0,0,0.792388180787384,0
1A_009,3,1,1,1,160,1,0,1,-1,-0,NaN,-1,0,1,NaN,0,0.664276345871258,0
1A_013,4,1,1,1,1,0,0,0,NaN,NaN,NaN,NaN,NaN,NaN,NaN,NaN,0.671474135718654,1
1A_013,4,1,1,1,2,0,0,0,-0,NaN,NaN,NaN,1,NaN,NaN,NaN,0.506513156188817,1
1A_013,4,1,1,1,3,1,0,0,-0,-0,NaN,NaN,1,1,NaN,NaN,0.63928512995119,1
1A_013,4,1,1,1,4,0,0,0,-1,-0,-0,NaN,0,1,1,NaN,0.841111173671607,1
1A_013,4,1,1,1,5,1,1,1,-0,-1,-0,-0,1,0,1,1,0.747288836687062,1
1A_013,4,1,1,1,6,1,1,1,1,-0,-1,-0,-0,1,0,1,0.651604468933897,1
1A_013,4,1,1,1,7,1,1,1,1,1,-0,-1,-0,-0,1,0,0.527614982991736,1
1A_013,4,1,1,1,8,1,1,1,1,1,1,-0,-0,-0,-0,1,0.624834228746408,1
1A_013,4,1,1,1,9,1,1,1,1,1,1,1,-0,-0,-0,-0,0.690249062038447,1
1A_013,4,1,1,1,10,1,1,1,1,1,1,1,-0,-0,-0,-0,0.637108579658161,1
1A_013,4,1,1,1,11,1,1,1,1,1,1,1,-0,-0,-0,-0,0.703578512092918,1
1A_013,4,1,1,1,12,1,1,1,1,1,1,1,-0,-0,-0,-0,0.688198605254115,1
1A_013,4,1,1,1,13,1,1,1,1,1,1,1,-0,-0,-0,-0,0.557629415636939,1
1A_013,4,1,1,1,14,1,1,1,1,1,1,1,-0,-0,-0,-0,0.626830207240459,1
1A_013,4,1,1,1,15,1,1,1,1,1,1,1,-0,-0,-0,-0,0.680692780670029,1
1A_013,4,1,1,1,16,1,1,1,1,1,1,1,-0,-0,-0,-0,0.607858319020579,1
1A_013,4,1,1,1,17,1,1,1,1,1,1,1,-0,-0,-0,-0,0.655826849692289,1
1A_013,4,1,1,1,18,0,1,1,1,1,1,1,-0,-0,-0,-0,0.559070010291862,1
1A_013,4,1,1,1,19,1,1,1,0,1,1,1,-1,-0,-0,-0,0.98293310466272,1
1A_013,4,1,1,1,20,1,1,1,1,0,1,1,-0,-1,-0,-0,0.593094374235648,1
1A_013,4,1,1,1,21,1,1,1,1,1,0,1,-0,-0,-1,-0,0.587505044007685,1
1A_013,4,1,1,1,22,1,1,1,1,1,1,0,-0,-0,-0,-1,0.639721272379802,1
1A_013,4,1,1,1,23,1,1,1,1,1,1,1,-0,-0,-0,-0,0.648328659119329,1
1A_013,4,1,1,1,24,0,1,1,1,1,1,1,-0,-0,-0,-0,0.650040497416967,1
1A_013,4,1,1,1,25,1,1,1,0,1,1,1,-1,-0,-0,-0,0.637024742202584,1
1A_013,4,1,1,1,26,1,1,1,1,0,1,1,-0,-1,-0,-0,0.619632621814617,1
1A_013,4,1,1,1,27,1,1,1,1,1,0,1,-0,-0,-1,-0,0.588354314556341,1
1A_013,4,1,1,1,28,1,1,1,1,1,1,0,-0,-0,-0,-1,0.604976563659079,1
1A_013,4,1,1,1,29,1,1,1,1,1,1,1,-0,-0,-0,-0,0.598613918721071,1
1A_013,4,1,1,1,30,1,1,1,1,1,1,1,-0,-0,-0,-0,0.569632443378168,1
1A_013,4,1,1,1,31,1,1,1,1,1,1,1,-0,-0,-0,-0,0.468444038748089,1
1A_013,4,1,1,1,32,1,1,1,1,1,1,1,-0,-0,-0,-0,0.548167685938324,1
1A_013,4,1,1,1,33,1,1,1,1,1,1,1,-0,-0,-0,-0,0.474214377176168,1
1A_013,4,1,1,1,34,0,1,1,1,1,1,1,-0,-0,-0,-0,0.631982352489104,1
1A_013,4,1,1,1,35,1,1,1,0,1,1,1,-1,-0,-0,-0,0.477448136440671,1
1A_013,4,1,1,1,36,1,1,1,1,0,1,1,-0,-1,-0,-0,0.498366652075447,1
1A_013,4,1,1,1,37,0,1,1,1,1,0,1,-0,-0,-1,-0,0.612549131207516,1
1A_013,4,1,1,1,38,1,1,1,0,1,1,0,-1,-0,-0,-1,0.655799720649838,1
1A_013,4,1,1,1,39,1,1,1,1,0,1,1,-0,-1,-0,-0,0.510396046326605,1
1A_013,4,1,1,1,40,1,1,1,1,1,0,1,-0,-0,-1,-0,0.588090223079007,1
1A_013,4,1,1,1,41,1,1,1,1,1,1,0,-0,-0,-0,-1,0.516336806386335,1
1A_013,4,1,1,1,42,1,1,1,1,1,1,1,-0,-0,-0,-0,0.485583465879927,1
1A_013,4,1,1,1,43,1,1,1,1,1,1,1,-0,-0,-0,-0,0.698892141105262,1
1A_013,4,1,1,1,44,1,1,1,1,1,1,1,-0,-0,-0,-0,0.650757952791082,1
1A_013,4,1,1,1,45,1,1,1,1,1,1,1,-0,-0,-0,-0,0.673870293317577,1
1A_013,4,1,1,1,46,1,1,1,1,1,1,1,-0,-0,-0,-0,0.582958685584117,1
1A_013,4,1,1,1,47,0,1,1,1,1,1,1,-0,-0,-0,-0,0.73674622743647,1
1A_013,4,1,1,1,48,1,1,1,0,1,1,1,-1,-0,-0,-0,0.645595687448576,1
1A_013,4,1,1,1,49,1,1,1,1,0,1,1,-0,-1,-0,-0,0.629688003983119,1
1A_013,4,1,1,1,50,1,1,1,1,1,0,1,-0,-0,-1,-0,0.58472511979312,1
1A_013,4,1,1,1,51,1,1,1,1,1,1,0,-0,-0,-0,-1,0.637861115863416,1
1A_013,4,1,1,1,52,1,1,1,1,1,1,1,-0,-0,-0,-0,0.571916275821422,1
1A_013,4,1,1,1,53,1,1,1,1,1,1,1,-0,-0,-0,-0,0.673405724338863,1
1A_013,4,1,1,1,54,0,1,1,1,1,1,1,-0,-0,-0,-0,0.58491208991336,1
1A_013,4,1,1,1,55,1,1,1,0,1,1,1,-1,-0,-0,-0,0.629284376775331,1
1A_013,4,1,1,1,56,0,1,0,1,0,1,1,-0,-1,-0,-0,0.599010531433578,0
1A_013,4,1,1,1,57,0,1,0,0,1,0,1,-1,-0,-1,-0,0.846425944811699,0
1A_013,4,1,1,1,58,0,1,0,0,0,1,0,-1,-1,-0,-1,0.621194493193343,0
1A_013,4,1,1,1,59,1,0,1,0,0,0,1,-1,-1,-1,-0,0.797240815194527,0
1A_013,4,1,1,1,60,1,0,1,-1,0,0,0,0,-1,-1,-1,0.557657471948005,0
1A_013,4,1,1,1,61,1,0,1,-1,-1,0,0,0,0,-1,-1,0.56058234814509,0
1A_013,4,1,1,1,62,1,0,1,-1,-1,-1,0,0,0,0,-1,0.718118002713254,0
1A_013,4,1,1,1,63,1,0,1,-1,-1,-1,-1,0,0,0,0,0.652896640447125,0
1A_013,4,1,1,1,64,1,0,1,-1,-1,-1,-1,0,0,0,0,0.643751106707668,0
1A_013,4,1,1,1,65,1,0,1,-1,-1,-1,-1,0,0,0,0,0.714493339370392,0
1A_013,4,1,1,1,66,1,0,1,-1,-1,-1,-1,0,0,0,0,0.604542441506965,0
1A_013,4,1,1,1,67,1,0,1,-1,-1,-1,-1,0,0,0,0,0.653278509753818,0
1A_013,4,1,1,1,68,1,0,1,-1,-1,-1,-1,0,0,0,0,0.613165038126454,0
1A_013,4,1,1,1,69,1,0,1,-1,-1,-1,-1,0,0,0,0,0.537465345879582,0
1A_013,4,1,1,1,70,0,0,1,-1,-1,-1,-1,0,0,0,0,0.705686629954698,0
1A_013,4,1,1,1,71,0,0,0,-0,-1,-1,-1,1,0,0,0,0.575326434342514,1
1A_013,4,1,1,1,72,0,0,0,-0,-0,-1,-1,1,1,0,0,0.726997142341588,1
1A_013,4,1,1,1,73,0,1,1,-0,-0,-0,-1,1,1,1,0,0.526919255779148,1
1A_013,4,1,1,1,74,0,1,1,0,-0,-0,-0,-1,1,1,1,0.536660707531155,1
1A_013,4,1,1,1,75,1,1,1,0,0,-0,-0,-1,-1,1,1,0.728435649221865,1
1A_013,4,1,1,1,76,1,1,1,1,0,0,-0,-0,-1,-1,1,0.45919898919351,1
1A_013,4,1,1,1,77,1,1,1,1,1,0,0,-0,-0,-1,-1,0.507979351145877,1
1A_013,4,1,1,1,78,0,0,0,1,1,1,0,-0,-0,-0,-1,0.666500422032641,1
1A_013,4,1,1,1,79,1,0,0,-0,1,1,1,1,-0,-0,-0,0.528663255097626,1
1A_013,4,1,1,1,80,1,1,1,-1,-0,1,1,0,1,-0,-0,0.478585393930643,1
1A_013,4,1,1,1,81,0,0,0,1,-1,-0,1,-0,0,1,-0,0.727750510582609,1
1A_013,4,1,1,1,82,0,0,0,-0,1,-1,-0,1,-0,0,1,0.753785519571238,1
1A_013,4,1,1,1,83,0,0,0,-0,-0,1,-1,1,1,-0,0,0.666164928525177,1
1A_013,4,1,1,1,84,1,1,1,-0,-0,-0,1,1,1,1,-0,0.702257141806967,1
1A_013,4,1,1,1,85,1,1,1,1,-0,-0,-0,-0,1,1,1,0.670721514305114,1
1A_013,4,1,1,1,86,1,1,1,1,1,-0,-0,-0,-0,1,1,0.68997188354183,1
1A_013,4,1,1,1,87,1,1,1,1,1,1,-0,-0,-0,-0,1,0.716897454104355,1
1A_013,4,1,1,1,88,1,1,1,1,1,1,1,-0,-0,-0,-0,0.766276435679401,1
1A_013,4,1,1,1,89,1,1,1,1,1,1,1,-0,-0,-0,-0,0.632658198726176,1
1A_013,4,1,1,1,90,1,1,1,1,1,1,1,-0,-0,-0,-0,1.13058528299234,1
1A_013,4,1,1,1,91,1,1,0,1,1,1,1,-0,-0,-0,-0,0.691080536378877,0
1A_013,4,1,1,1,92,1,1,0,1,1,1,1,-0,-0,-0,-0,0.56233346253839,0
1A_013,4,1,1,1,93,0,1,0,1,1,1,1,-0,-0,-0,-0,0.745002718317437,0
1A_013,4,1,1,1,94,0,1,0,0,1,1,1,-1,-0,-0,-0,0.794915160091705,0
1A_013,4,1,1,1,95,1,1,0,0,0,1,1,-1,-1,-0,-0,0.669592627294833,0
1A_013,4,1,1,1,96,0,1,0,1,0,0,1,-0,-1,-1,-0,0.669775281856346,0
1A_013,4,1,1,1,97,1,0,1,0,1,0,0,-1,-0,-1,-1,0.967834991947029,0
1A_013,4,1,1,1,98,1,0,1,-1,0,1,0,0,-1,-0,-1,0.693954262094621,0
1A_013,4,1,1,1,99,1,0,1,-1,-1,0,1,0,0,-1,-0,0.525129867742862,0
1A_013,4,1,1,1,100,1,0,1,-1,-1,-1,0,0,0,0,-1,0.530057153167945,0
1A_013,4,1,1,1,101,1,0,1,-1,-1,-1,-1,0,0,0,0,0.77691783664045,0
1A_013,4,1,1,1,102,1,0,1,-1,-1,-1,-1,0,0,0,0,0.713248924702384,0
1A_013,4,1,1,1,103,1,0,1,-1,-1,-1,-1,0,0,0,0,0.61477955564601,0
1A_013,4,1,1,1,104,1,0,1,-1,-1,-1,-1,0,0,0,0,0.61357048244713,0
1A_013,4,1,1,1,105,1,0,1,-1,-1,-1,-1,0,0,0,0,0.936539585185074,0
1A_013,4,1,1,1,106,0,0,0,-1,-1,-1,-1,0,0,0,0,0.667226312711819,1
1A_013,4,1,1,1,107,0,0,0,-0,-1,-1,-1,1,0,0,0,0.590648557804798,1
1A_013,4,1,1,1,108,0,0,0,-0,-0,-1,-1,1,1,0,0,0.420247903871541,1
1A_013,4,1,1,1,109,1,0,0,-0,-0,-0,-1,1,1,1,0,0.477933965101329,1
1A_013,4,1,1,1,110,1,1,1,-1,-0,-0,-0,0,1,1,1,0.538006429731468,1
1A_013,4,1,1,1,111,1,1,1,1,-1,-0,-0,-0,0,1,1,0.557522747321855,1
1A_013,4,1,1,1,112,1,1,1,1,1,-1,-0,-0,-0,0,1,0.627284455968947,1
1A_013,4,1,1,1,113,1,1,1,1,1,1,-1,-0,-0,-0,0,0.604143339704478,1
1A_013,4,1,1,1,114,1,1,1,1,1,1,1,-0,-0,-0,-0,0.522680291780716,1
1A_013,4,1,1,1,115,1,1,1,1,1,1,1,-0,-0,-0,-0,0.746071952042712,1
1A_013,4,1,1,1,116,1,1,1,1,1,1,1,-0,-0,-0,-0,0.622494077843612,1
1A_013,4,1,1,1,117,1,1,1,1,1,1,1,-0,-0,-0,-0,0.622256734811344,1
1A_013,4,1,1,1,118,0,1,1,1,1,1,1,-0,-0,-0,-0,0.6480815919615,1
1A_013,4,1,1,1,119,1,1,1,0,1,1,1,-1,-0,-0,-0,0.625561089465691,1
1A_013,4,1,1,1,120,1,1,1,1,0,1,1,-0,-1,-0,-0,0.754660151838152,1
1A_013,4,1,1,1,121,1,1,1,1,1,0,1,-0,-0,-1,-0,0.584549199708817,1
1A_013,4,1,1,1,122,0,1,1,1,1,1,0,-0,-0,-0,-1,0.638802396530309,1
1A_013,4,1,1,1,123,1,1,1,0,1,1,1,-1,-0,-0,-0,0.475907787720644,1
1A_013,4,1,1,1,124,1,1,1,1,0,1,1,-0,-1,-0,-0,0.945151894301262,1
1A_013,4,1,1,1,125,1,1,1,1,1,0,1,-0,-0,-1,-0,0.560505429951945,1
1A_013,4,1,1,1,126,0,1,0,1,1,1,0,-0,-0,-0,-1,0.559271240301314,0
1A_013,4,1,1,1,127,0,1,0,0,1,1,1,-1,-0,-0,-0,0.647716045257312,0
1A_013,4,1,1,1,128,1,0,1,0,0,1,1,-1,-1,-0,-0,0.650810463600919,0
1A_013,4,1,1,1,129,1,0,1,-1,0,0,1,0,-1,-1,-0,0.542721832082634,0
1A_013,4,1,1,1,130,0,0,1,-1,-1,0,0,0,0,-1,-1,0.667553716426255,0
1A_013,4,1,1,1,131,1,0,1,-0,-1,-1,0,1,0,0,-1,0.737244326117889,0
1A_013,4,1,1,1,132,1,0,1,-1,-0,-1,-1,0,1,0,0,0.667985036723167,0
1A_013,4,1,1,1,133,1,0,1,-1,-1,-0,-1,0,0,1,0,0.603821216576534,0
1A_013,4,1,1,1,134,1,0,1,-1,-1,-1,-0,0,0,0,1,0.592617076446913,0
1A_013,4,1,1,1,135,1,0,1,-1,-1,-1,-1,0,0,0,0,0.584644730774471,0
1A_013,4,1,1,1,136,0,1,0,-1,-1,-1,-1,0,0,0,0,0.894019364712449,0
1A_013,4,1,1,1,137,0,0,1,0,-1,-1,-1,-1,0,0,0,0.973079696657805,0
1A_013,4,1,1,1,138,1,0,1,-0,0,-1,-1,1,-1,0,0,1.15324955457686,0
1A_013,4,1,1,1,139,1,0,1,-1,-0,0,-1,0,1,-1,0,0.620733172161181,0
1A_013,4,1,1,1,140,1,0,1,-1,-1,-0,0,0,0,1,-1,0.759920635154003,0
1A_013,4,1,1,1,141,1,0,1,-1,-1,-1,-0,0,0,0,1,0.699947623518938,0
1A_013,4,1,1,1,142,1,0,1,-1,-1,-1,-1,0,0,0,0,0.575406613180348,0
1A_013,4,1,1,1,143,1,0,1,-1,-1,-1,-1,0,0,0,0,0.992985108565563,0
1A_013,4,1,1,1,144,0,0,1,-1,-1,-1,-1,0,0,0,0,0.503343112816083,0
1A_013,4,1,1,1,145,1,0,1,-0,-1,-1,-1,1,0,0,0,0.835490752374199,0
1A_013,4,1,1,1,146,1,0,1,-1,-0,-1,-1,0,1,0,0,0.988746355082185,0
1A_013,4,1,1,1,147,1,0,1,-1,-1,-0,-1,0,0,1,0,1.47763165712104,0
1A_013,4,1,1,1,148,1,0,1,-1,-1,-1,-0,0,0,0,1,0.716120114881278,0
1A_013,4,1,1,1,149,1,0,1,-1,-1,-1,-1,0,0,0,0,0.736196727994411,0
1A_013,4,1,1,1,150,1,0,1,-1,-1,-1,-1,0,0,0,0,0.673044618165932,0
1A_013,4,1,1,1,151,1,0,1,-1,-1,-1,-1,0,0,0,0,0.780289255043954,0
1A_013,4,1,1,1,152,1,0,1,-1,-1,-1,-1,0,0,0,0,0.833520253887855,0
1A_013,4,1,1,1,153,1,0,1,-1,-1,-1,-1,0,0,0,0,0.617184542513996,0
1A_013,4,1,1,1,154,1,0,1,-1,-1,-1,-1,0,0,0,0,0.606823728054678,0
1A_013,4,1,1,1,155,1,0,1,-1,-1,-1,-1,0,0,0,0,0.665590821543219,0
1A_013,4,1,1,1,156,1,0,1,-1,-1,-1,-1,0,0,0,0,0.740063433534033,0
1A_013,4,1,1,1,157,0,0,1,-1,-1,-1,-1,0,0,0,0,0.640600515929009,0
1A_013,4,1,1,1,158,1,0,1,-0,-1,-1,-1,1,0,0,0,0.607197577405941,0
1A_013,4,1,1,1,159,1,0,1,-1,-0,-1,-1,0,1,0,0,0.641889306837356,0
1A_013,4,1,1,1,160,1,0,1,-1,-1,-0,-1,0,0,1,0,0.58169354253414,0
1A_014,5,1,1,1,1,1,0,1,NaN,NaN,NaN,NaN,NaN,NaN,NaN,NaN,1.2536231291524,0
1A_014,5,1,1,1,2,1,0,1,-1,NaN,NaN,NaN,0,NaN,NaN,NaN,0.923234261503239,0
1A_014,5,1,1,1,3,1,0,1,-1,-1,NaN,NaN,0,0,NaN,NaN,0.777108975049487,0
1A_014,5,1,1,1,4,1,0,1,-1,-1,-1,NaN,0,0,0,NaN,1.26429778322199,0
1A_014,5,1,1,1,5,1,1,0,-1,-1,-1,-1,0,0,0,0,0.547968811715691,0
1A_014,5,1,1,1,6,0,1,0,1,-1,-1,-1,-0,0,0,0,1.07452545085835,0
1A_014,5,1,1,1,7,0,1,0,0,1,-1,-1,-1,-0,0,0,1.15310087715261,0
1A_014,5,1,1,1,8,0,0,0,0,0,1,-1,-1,-1,-0,0,0,0
1A_014,5,1,1,1,9,1,0,1,NaN,0,0,1,NaN,-1,-1,-0,0.707653092766122,0
1A_014,5,1,1,1,10,0,1,0,-1,NaN,0,0,0,NaN,-1,-1,0.697738423059491,0
1A_014,5,1,1,1,11,1,0,1,0,-1,NaN,0,-1,0,NaN,-1,0.835199541874317,0
1A_014,5,1,1,1,12,0,1,0,-1,0,-1,NaN,0,-1,0,NaN,0.684505639521376,0
1A_014,5,1,1,1,13,1,0,1,0,-1,0,-1,-1,0,-1,0,0.689743231541797,0
1A_014,5,1,1,1,14,1,0,1,-1,0,-1,0,0,-1,0,-1,1.22224336453291,0
1A_014,5,1,1,1,15,1,0,1,-1,-1,0,-1,0,0,-1,0,0.673914854160103,0
1A_014,5,1,1,1,16,0,0,1,-1,-1,-1,0,0,0,0,-1,0.657164326363272,0
1A_014,5,1,1,1,17,0,1,0,-0,-1,-1,-1,1,0,0,0,0.712419048461015,0
1A_014,5,1,1,1,18,0,1,0,0,-0,-1,-1,-1,1,0,0,1.10066364869635,0
1A_014,5,1,1,1,19,0,0,1,0,0,-0,-1,-1,-1,1,0,0.977731771050458,0
1A_014,5,1,1,1,20,1,1,0,-0,0,0,-0,1,-1,-1,1,0.935692945669871,0
1A_014,5,1,1,1,21,1,0,1,1,-0,0,0,-0,1,-1,-1,1.32250788102465,0
1A_014,5,1,1,1,22,0,1,0,-1,1,-0,0,0,-0,1,-1,0.564231067655783,0
1A_014,5,1,1,1,23,0,1,0,0,-1,1,-0,-1,0,-0,1,0.664055255074345,0
1A_014,5,1,1,1,24,1,0,1,0,0,-1,1,-1,-1,0,-0,0.676855433179298,0
1A_014,5,1,1,1,25,1,1,0,-1,0,0,-1,0,-1,-1,0,0.801984598831041,0
1A_014,5,1,1,1,26,1,0,1,1,-1,0,0,-0,0,-1,-1,0.53693442891381,0
1A_014,5,1,1,1,27,1,0,1,-1,1,-1,0,0,-0,0,-1,0.687688381123735,0
1A_014,5,1,1,1,28,0,0,1,-1,-1,1,-1,0,0,-0,0,0.579192310109647,0
1A_014,5,1,1,1,29,0,1,0,-0,-1,-1,1,1,0,0,-0,0.702967248875211,0
1A_014,5,1,1,1,30,1,0,1,0,-0,-1,-1,-1,1,0,0,0.499729579001723,0
1A_014,5,1,1,1,31,1,1,0,-1,0,-0,-1,0,-1,1,0,0.53085846229078,0
1A_014,5,1,1,1,32,1,0,1,1,-1,0,-0,-0,0,-1,1,0.626248774486157,0
1A_014,5,1,1,1,33,0,1,0,-1,1,-1,0,0,-0,0,-1,1.10928922385938,0
1A_014,5,1,1,1,34,1,0,1,0,-1,1,-1,-1,0,-0,0,0.542633291453967,0
1A_014,5,1,1,1,35,1,0,1,-1,0,-1,1,0,-1,0,-0,0.76247642040471,0
1A_014,5,1,1,1,36,1,0,1,-1,-1,0,-1,0,0,-1,0,0.489623737314105,0
1A_014,5,1,1,1,37,0,1,0,-1,-1,-1,0,0,0,0,-1,0.582284549043834,0
1A_014,5,1,1,1,38,0,1,0,0,-1,-1,-1,-1,0,0,0,0.464331966199097,0
1A_014,5,1,1,1,39,1,0,1,0,0,-1,-1,-1,-1,0,0,0.869460291447467,0
1A_014,5,1,1,1,40,1,0,1,-1,0,0,-1,0,-1,-1,0,0.50413949268841,0
1A_014,5,1,1,1,41,1,0,1,-1,-1,0,0,0,0,-1,-1,0.41779362199668,0
1A_014,5,1,1,1,42,0,1,0,-1,-1,-1,0,0,0,0,-1,0.573471012117807,0
1A_014,5,1,1,1,43,0,1,0,0,-1,-1,-1,-1,0,0,0,0.950041289768706,0
1A_014,5,1,1,1,44,0,0,1,0,0,-1,-1,-1,-1,0,0,0.486204334316426,0
1A_014,5,1,1,1,45,1,1,0,-0,0,0,-1,1,-1,-1,0,0.72990508348812,0
1A_014,5,1,1,1,46,1,0,1,1,-0,0,0,-0,1,-1,-1,0.647179138417414,0
1A_014,5,1,1,1,47,0,1,0,-1,1,-0,0,0,-0,1,-1,0.592193940781726,0
1A_014,5,1,1,1,48,0,1,0,0,-1,1,-0,-1,0,-0,1,0.64645228043446,0
1A_014,5,1,1,1,49,1,0,1,0,0,-1,1,-1,-1,0,-0,0.423760628607852,0
1A_014,5,1,1,1,50,1,0,1,-1,0,0,-1,0,-1,-1,0,0.503199947204848,0
1A_014,5,1,1,1,51,1,0,1,-1,-1,0,0,0,0,-1,-1,0.419777210012398,0
1A_014,5,1,1,1,52,1,0,1,-1,-1,-1,0,0,0,0,-1,0.500710345746484,0
1A_014,5,1,1,1,53,0,0,1,-1,-1,-1,-1,0,0,0,0,0.522529586014571,0
1A_014,5,1,1,1,54,0,1,0,-0,-1,-1,-1,1,0,0,0,0.533067617114284,0
1A_014,5,1,1,1,55,1,0,1,0,-0,-1,-1,-1,1,0,0,0.477125706485822,0
1A_014,5,1,1,1,56,1,0,0,-1,0,-0,-1,0,-1,1,0,0.479641386671574,1
1A_014,5,1,1,1,57,1,1,1,-1,-1,0,-0,0,0,-1,1,0.629624682973372,1
1A_014,5,1,1,1,58,1,1,1,1,-1,-1,0,-0,0,0,-1,0.675803062858904,1
1A_014,5,1,1,1,59,0,0,0,1,1,-1,-1,-0,-0,0,0,0.612372048999532,1
1A_014,5,1,1,1,60,1,1,1,-0,1,1,-1,1,-0,-0,0,0.599501177224738,1
1A_014,5,1,1,1,61,0,0,0,1,-0,1,1,-0,1,-0,-0,0.437685076336493,1
1A_014,5,1,1,1,62,1,1,1,-0,1,-0,1,1,-0,1,-0,0.443918680226489,1
1A_014,5,1,1,1,63,0,0,0,1,-0,1,-0,-0,1,-0,1,0.560402742736187,1
1A_014,5,1,1,1,64,0,0,0,-0,1,-0,1,1,-0,1,-0,0.599607886710146,1
1A_014,5,1,1,1,65,1,1,1,-0,-0,1,-0,1,1,-0,1,0.499946504241962,1
1A_014,5,1,1,1,66,1,1,1,1,-0,-0,1,-0,1,1,-0,0.474036905667163,1
1A_014,5,1,1,1,67,1,1,1,1,1,-0,-0,-0,-0,1,1,0.434029734045907,1
1A_014,5,1,1,1,68,1,1,1,1,1,1,-0,-0,-0,-0,1,0.54123093666567,1
1A_014,5,1,1,1,69,1,1,1,1,1,1,1,-0,-0,-0,-0,0.46598399501454,1
1A_014,5,1,1,1,70,1,1,1,1,1,1,1,-0,-0,-0,-0,0.459017335251701,1
1A_014,5,1,1,1,71,0,1,0,1,1,1,1,-0,-0,-0,-0,0.352305589731259,0
1A_014,5,1,1,1,72,0,1,0,0,1,1,1,-1,-0,-0,-0,0.42154510313776,0
1A_014,5,1,1,1,73,1,0,1,0,0,1,1,-1,-1,-0,-0,0.447581931945024,0
1A_014,5,1,1,1,74,1,0,1,-1,0,0,1,0,-1,-1,-0,0.304601143478067,0
1A_014,5,1,1,1,75,0,0,1,-1,-1,0,0,0,0,-1,-1,0.472252106006636,0
1A_014,5,1,1,1,76,0,1,0,-0,-1,-1,0,1,0,0,-1,0.579739170898392,0
1A_014,5,1,1,1,77,1,0,1,0,-0,-1,-1,-1,1,0,0,0.466087830103788,0
1A_014,5,1,1,1,78,0,0,1,-1,0,-0,-1,0,-1,1,0,0.405088692888967,0
1A_014,5,1,1,1,79,1,0,1,-0,-1,0,-0,1,0,-1,1,1.3054412162528,0
1A_014,5,1,1,1,80,0,1,0,-1,-0,-1,0,0,1,0,-1,0.446072175647714,0
1A_014,5,1,1,1,81,1,0,1,0,-1,-0,-1,-1,0,1,0,0.485165154062997,0
1A_014,5,1,1,1,82,0,1,0,-1,0,-1,-0,0,-1,0,1,0.356898921683751,0
1A_014,5,1,1,1,83,1,0,1,0,-1,0,-1,-1,0,-1,0,0.715800954345468,0
1A_014,5,1,1,1,84,1,0,1,-1,0,-1,0,0,-1,0,-1,0.502270009990752,0
1A_014,5,1,1,1,85,0,1,0,-1,-1,0,-1,0,0,-1,0,0.40146167484636,0
1A_014,5,1,1,1,86,1,0,1,0,-1,-1,0,-1,0,0,-1,0.762614772957022,0
1A_014,5,1,1,1,87,1,1,0,-1,0,-1,-1,0,-1,0,0,0.565576359924307,0
1A_014,5,1,1,1,88,0,1,0,1,-1,0,-1,-0,0,-1,0,0.422655017493526,0
1A_014,5,1,1,1,89,0,1,0,0,1,-1,0,-1,-0,0,-1,0.691055385064828,0
1A_014,5,1,1,1,90,1,0,1,0,0,1,-1,-1,-1,-0,0,0.675291120187467,0
1A_014,5,1,1,1,91,1,1,1,-1,0,0,1,0,-1,-1,-0,0.807157308787282,1
1A_014,5,1,1,1,92,0,0,0,1,-1,0,0,-0,0,-1,-1,0.434587917650788,1
1A_014,5,1,1,1,93,0,0,0,-0,1,-1,0,1,-0,0,-1,0.678038923288113,1
1A_014,5,1,1,1,94,0,1,1,-0,-0,1,-1,1,1,-0,0,0.507065262663673,1
1A_014,5,1,1,1,95,0,0,0,0,-0,-0,1,-1,1,1,-0,0.636691486084601,1
1A_014,5,1,1,1,96,0,0,0,-0,0,-0,-0,1,-1,1,1,0.538333703796525,1
1A_014,5,1,1,1,97,1,0,0,-0,-0,0,-0,1,1,-1,1,0.651844790369069,1
1A_014,5,1,1,1,98,0,0,0,-1,-0,-0,0,0,1,1,-1,0.452251478465769,1
1A_014,5,1,1,1,99,0,0,0,-0,-1,-0,-0,1,0,1,1,0.488635294037522,1
1A_014,5,1,1,1,100,0,1,1,-0,-0,-1,-0,1,1,0,1,0.690874849213287,1
1A_014,5,1,1,1,101,0,0,0,0,-0,-0,-1,-1,1,1,0,1.05863218640297,1
1A_014,5,1,1,1,102,1,1,1,-0,0,-0,-0,1,-1,1,1,0.435256457698415,1
1A_014,5,1,1,1,103,1,1,1,1,-0,0,-0,-0,1,-1,1,0.529260050527228,1
1A_014,5,1,1,1,104,1,1,1,1,1,-0,0,-0,-0,1,-1,0.632176945360698,1
1A_014,5,1,1,1,105,1,1,1,1,1,1,-0,-0,-0,-0,1,0.364984906253085,1
1A_014,5,1,1,1,106,1,0,1,1,1,1,1,-0,-0,-0,-0,0.457485714905488,0
1A_014,5,1,1,1,107,1,0,1,-1,1,1,1,0,-0,-0,-0,0.460625791696657,0
1A_014,5,1,1,1,108,0,1,0,-1,-1,1,1,0,0,-0,-0,0.610794561303919,0
1A_014,5,1,1,1,109,0,0,1,0,-1,-1,1,-1,0,0,-0,0.669728865577781,0
1A_014,5,1,1,1,110,0,0,1,-0,0,-1,-1,1,-1,0,0,0.580079880237463,0
1A_014,5,1,1,1,111,1,0,1,-0,-0,0,-1,1,1,-1,0,0.520791671540792,0
1A_014,5,1,1,1,112,1,0,1,-1,-0,-0,0,0,1,1,-1,0.498368447817484,0
1A_014,5,1,1,1,113,1,0,1,-1,-1,-0,-0,0,0,1,1,0.574862345161819,0
1A_014,5,1,1,1,114,0,1,0,-1,-1,-1,-0,0,0,0,1,0.496446350869519,0
1A_014,5,1,1,1,115,1,0,1,0,-1,-1,-1,-1,0,0,0,0.535169152219169,0
1A_014,5,1,1,1,116,1,0,1,-1,0,-1,-1,0,-1,0,0,0.5543565419066,0
1A_014,5,1,1,1,117,1,0,1,-1,-1,0,-1,0,0,-1,0,0.876498680092482,0
1A_014,5,1,1,1,118,1,0,1,-1,-1,-1,0,0,0,0,-1,0.482463769996684,0
1A_014,5,1,1,1,119,1,0,1,-1,-1,-1,-1,0,0,0,0,0.554746677673393,0
1A_014,5,1,1,1,120,0,1,0,-1,-1,-1,-1,0,0,0,0,0.576204785757,0
1A_014,5,1,1,1,121,1,0,1,0,-1,-1,-1,-1,0,0,0,0.606089582739514,0
1A_014,5,1,1,1,122,0,0,1,-1,0,-1,-1,0,-1,0,0,0.583126930825529,0
1A_014,5,1,1,1,123,1,0,1,-0,-1,0,-1,1,0,-1,0,0.807640756789624,0
1A_014,5,1,1,1,124,1,0,1,-1,-0,-1,0,0,1,0,-1,0.539091272559745,0
1A_014,5,1,1,1,125,0,1,0,-1,-1,-0,-1,0,0,1,0,0.609709996559104,0
1A_014,5,1,1,1,126,0,0,0,0,-1,-1,-0,-1,0,0,1,0.637359910848318,1
1A_014,5,1,1,1,127,1,1,1,-0,0,-1,-1,1,-1,0,0,0.71624905785211,1
1A_014,5,1,1,1,128,0,0,0,1,-0,0,-1,-0,1,-1,0,0.609392471837054,1
1A_014,5,1,1,1,129,0,0,0,-0,1,-0,0,1,-0,1,-1,0.483995971768309,1
1A_014,5,1,1,1,130,0,1,1,-0,-0,1,-0,1,1,-0,1,0.637140013299359,1
1A_014,5,1,1,1,131,1,1,1,0,-0,-0,1,-1,1,1,-0,0.949542328988173,1
1A_014,5,1,1,1,132,1,1,1,1,0,-0,-0,-0,-1,1,1,0.392981156375754,1
1A_014,5,1,1,1,133,0,0,0,1,1,0,-0,-0,-0,-1,1,0.387361142205918,1
1A_014,5,1,1,1,134,0,1,1,-0,1,1,0,1,-0,-0,-1,0.330361578278826,1
1A_014,5,1,1,1,135,0,0,0,0,-0,1,1,-1,1,-0,-0,1.01552759011247,1
1A_014,5,1,1,1,136,0,0,0,-0,0,-0,1,1,-1,1,-0,0.443615615695307,1
1A_014,5,1,1,1,137,1,1,1,-0,-0,0,-0,1,1,-1,1,0.582272494426434,1
1A_014,5,1,1,1,138,1,0,0,1,-0,-0,0,-0,1,1,-1,0.386761571928218,1
1A_014,5,1,1,1,139,0,0,0,-1,1,-0,-0,0,-0,1,1,0.351780968579988,1
1A_014,5,1,1,1,140,0,0,0,-0,-1,1,-0,1,0,-0,1,0.502836085652234,1
1A_014,5,1,1,1,141,0,1,1,-0,-0,-1,1,1,1,0,-0,0.54724013660234,1
1A_014,5,1,1,1,142,1,0,0,0,-0,-0,-1,-1,1,1,0,0.847474449899892,1
1A_014,5,1,1,1,143,0,0,0,-1,0,-0,-0,0,-1,1,1,0.373298402406363,1
1A_014,5,1,1,1,144,1,1,1,-0,-1,0,-0,1,0,-1,1,0.546149564761436,1
1A_014,5,1,1,1,145,0,1,1,1,-0,-1,0,-0,1,0,-1,0.478703422410035,1
1A_014,5,1,1,1,146,1,0,0,0,1,-0,-1,-1,-0,1,0,0.675211562069308,1
1A_014,5,1,1,1,147,0,0,0,-1,0,1,-0,0,-1,-0,1,0.43633875888554,1
1A_014,5,1,1,1,148,0,0,0,-0,-1,0,1,1,0,-1,-0,0.3990674533743,1
1A_014,5,1,1,1,149,0,0,0,-0,-0,-1,0,1,1,0,-1,0.656952989513229,1
1A_014,5,1,1,1,150,1,1,1,-0,-0,-0,-1,1,1,1,0,0.622644119055622,1
1A_014,5,1,1,1,151,1,1,1,1,-0,-0,-0,-0,1,1,1,0.459794847676676,1
1A_014,5,1,1,1,152,1,1,1,1,1,-0,-0,-0,-0,1,1,0.401098324884515,1
1A_014,5,1,1,1,153,1,1,1,1,1,1,-0,-0,-0,-0,1,0.344593606623675,1
1A_014,5,1,1,1,154,1,1,1,1,1,1,1,-0,-0,-0,-0,0.416027185117855,1
1A_014,5,1,1,1,155,1,1,1,1,1,1,1,-0,-0,-0,-0,0.429015715941205,1
1A_014,5,1,1,1,156,1,1,1,1,1,1,1,-0,-0,-0,-0,0.545346060822339,1
1A_014,5,1,1,1,157,1,1,1,1,1,1,1,-0,-0,-0,-0,0.474183798865852,1
1A_014,5,1,1,1,158,1,1,1,1,1,1,1,-0,-0,-0,-0,0.475548313690524,1
1A_014,5,1,1,1,159,1,1,1,1,1,1,1,-0,-0,-0,-0,0.56064824585701,1
1A_014,5,1,1,1,160,1,1,1,1,1,1,1,-0,-0,-0,-0,0.441339544147922,1
1A_018,6,1,1,1,1,1,0,0,NaN,NaN,NaN,NaN,NaN,NaN,NaN,NaN,1.25472855742555,1
1A_018,6,1,1,1,2,0,0,0,-1,NaN,NaN,NaN,0,NaN,NaN,NaN,0.496643885329831,1
1A_018,6,1,1,1,3,0,0,0,-0,-1,NaN,NaN,1,0,NaN,NaN,0.602813013945706,1
1A_018,6,1,1,1,4,1,1,1,-0,-0,-1,NaN,1,1,0,NaN,0.52438948454801,1
1A_018,6,1,1,1,5,1,1,1,1,-0,-0,-1,-0,1,1,0,0.520903088909108,1
1A_018,6,1,1,1,6,1,1,1,1,1,-0,-0,-0,-0,1,1,0.659033889824059,1
1A_018,6,1,1,1,7,1,1,1,1,1,1,-0,-0,-0,-0,1,0.553599541541189,1
1A_018,6,1,1,1,8,0,1,1,1,1,1,1,-0,-0,-0,-0,0.514431827759836,1
1A_018,6,1,1,1,9,1,0,0,0,1,1,1,-1,-0,-0,-0,0.463341591355857,1
1A_018,6,1,1,1,10,0,0,0,-1,0,1,1,0,-1,-0,-0,0.616811283689458,1
1A_018,6,1,1,1,11,0,0,0,-0,-1,0,1,1,0,-1,-0,0.650006434763782,1
1A_018,6,1,1,1,12,1,1,1,-0,-0,-1,0,1,1,0,-1,0.443497782864142,1
1A_018,6,1,1,1,13,1,1,1,1,-0,-0,-1,-0,1,1,0,0.480663442634977,1
1A_018,6,1,1,1,14,1,1,1,1,1,-0,-0,-0,-0,1,1,0.445686149352696,1
1A_018,6,1,1,1,15,1,1,1,1,1,1,-0,-0,-0,-0,1,0.656866778153926,1
1A_018,6,1,1,1,16,1,1,1,1,1,1,1,-0,-0,-0,-0,0.611781496263575,1
1A_018,6,1,1,1,17,1,1,1,1,1,1,1,-0,-0,-0,-0,0.515812397119589,1
1A_018,6,1,1,1,18,0,1,1,1,1,1,1,-0,-0,-0,-0,0.662552697584033,1
1A_018,6,1,1,1,19,1,1,1,0,1,1,1,-1,-0,-0,-0,0.431095648673363,1
1A_018,6,1,1,1,20,1,1,1,1,0,1,1,-0,-1,-0,-0,0.390622249280568,1
1A_018,6,1,1,1,21,0,0,0,1,1,0,1,-0,-0,-1,-0,0.421233035041951,1
1A_018,6,1,1,1,22,1,1,1,-0,1,1,0,1,-0,-0,-1,0.558614372217562,1
1A_018,6,1,1,1,23,1,1,1,1,-0,1,1,-0,1,-0,-0,0.561295101302676,1
1A_018,6,1,1,1,24,1,1,1,1,1,-0,1,-0,-0,1,-0,0.53477295365883,1
1A_018,6,1,1,1,25,0,1,1,1,1,1,-0,-0,-0,-0,1,0.580004266113974,1
1A_018,6,1,1,1,26,1,1,1,0,1,1,1,-1,-0,-0,-0,0.517482509429101,1
1A_018,6,1,1,1,27,1,1,1,1,0,1,1,-0,-1,-0,-0,0.621057563868817,1
1A_018,6,1,1,1,28,0,1,1,1,1,0,1,-0,-0,-1,-0,0.474265614291653,1
1A_018,6,1,1,1,29,1,1,1,0,1,1,0,-1,-0,-0,-1,0.55086055456195,1
1A_018,6,1,1,1,30,0,1,1,1,0,1,1,-0,-1,-0,-0,0.560506451525725,1
1A_018,6,1,1,1,31,1,1,1,0,1,0,1,-1,-0,-1,-0,0.549390240048524,1
1A_018,6,1,1,1,32,0,0,0,1,0,1,0,-0,-1,-0,-1,0.569750254973769,1
1A_018,6,1,1,1,33,1,1,1,-0,1,0,1,1,-0,-1,-0,0.690656149759889,1
1A_018,6,1,1,1,34,1,1,1,1,-0,1,0,-0,1,-0,-1,0.593080840015318,1
1A_018,6,1,1,1,35,1,1,1,1,1,-0,1,-0,-0,1,-0,0.559737660398241,1
1A_018,6,1,1,1,36,1,1,1,1,1,1,-0,-0,-0,-0,1,0.562815266079269,1
1A_018,6,1,1,1,37,1,1,1,1,1,1,1,-0,-0,-0,-0,0.521691134897992,1
1A_018,6,1,1,1,38,1,1,1,1,1,1,1,-0,-0,-0,-0,0.514627547876444,1
1A_018,6,1,1,1,39,1,1,1,1,1,1,1,-0,-0,-0,-0,0.566329267108813,1
1A_018,6,1,1,1,40,1,1,1,1,1,1,1,-0,-0,-0,-0,0.555370351241436,1
1A_018,6,1,1,1,41,0,1,1,1,1,1,1,-0,-0,-0,-0,0.609222333121579,1
1A_018,6,1,1,1,42,1,1,1,0,1,1,1,-1,-0,-0,-0,0.508879350672942,1
1A_018,6,1,1,1,43,1,1,1,1,0,1,1,-0,-1,-0,-0,0.583456440770533,1
1A_018,6,1,1,1,44,0,1,1,1,1,0,1,-0,-0,-1,-0,0.58369256509468,1
1A_018,6,1,1,1,45,1,1,1,0,1,1,0,-1,-0,-0,-1,0.525805167970248,1
1A_018,6,1,1,1,46,1,1,1,1,0,1,1,-0,-1,-0,-0,0.5358253759332,1
1A_018,6,1,1,1,47,1,1,1,1,1,0,1,-0,-0,-1,-0,0.511441920185462,1
1A_018,6,1,1,1,48,1,1,1,1,1,1,0,-0,-0,-0,-1,0.589657358417753,1
1A_018,6,1,1,1,49,1,1,1,1,1,1,1,-0,-0,-0,-0,0.51563702680869,1
1A_018,6,1,1,1,50,1,1,1,1,1,1,1,-0,-0,-0,-0,0.483941174054053,1
1A_018,6,1,1,1,51,1,1,1,1,1,1,1,-0,-0,-0,-0,0.58393276942661,1
1A_018,6,1,1,1,52,1,1,1,1,1,1,1,-0,-0,-0,-0,0.510429120098706,1
1A_018,6,1,1,1,53,0,1,1,1,1,1,1,-0,-0,-0,-0,0.488326840859372,1
1A_018,6,1,1,1,54,0,1,1,0,1,1,1,-1,-0,-0,-0,0.661369474779349,1
1A_018,6,1,1,1,55,1,1,1,0,0,1,1,-1,-1,-0,-0,0.601239864423405,1
1A_018,6,1,1,1,56,0,1,0,1,0,0,1,-0,-1,-1,-0,0.493206795712467,0
1A_018,6,1,1,1,57,0,1,0,0,1,0,0,-1,-0,-1,-1,0.673514453112148,0
1A_018,6,1,1,1,58,1,0,1,0,0,1,0,-1,-1,-0,-1,0.574294308025856,0
1A_018,6,1,1,1,59,0,0,1,-1,0,0,1,0,-1,-1,-0,0.555286963994149,0
1A_018,6,1,1,1,60,1,0,1,-0,-1,0,0,1,0,-1,-1,0.569799863966182,0
1A_018,6,1,1,1,61,0,0,1,-1,-0,-1,0,0,1,0,-1,0.504177996655926,0
1A_018,6,1,1,1,62,0,0,1,-0,-1,-0,-1,1,0,1,0,0.5903657466406,0
1A_018,6,1,1,1,63,1,0,1,-0,-0,-1,-0,1,1,0,1,0.525130116846412,0
1A_018,6,1,1,1,64,0,1,0,-1,-0,-0,-1,0,1,1,0,0.709808935236651,0
1A_018,6,1,1,1,65,0,0,1,0,-1,-0,-0,-1,0,1,1,0.543977643479593,0
1A_018,6,1,1,1,66,1,0,1,-0,0,-1,-0,1,-1,0,1,0.418712591577787,0
1A_018,6,1,1,1,67,1,0,1,-1,-0,0,-1,0,1,-1,0,0.440084215602838,0
1A_018,6,1,1,1,68,0,1,0,-1,-1,-0,0,0,0,1,-1,0.543328523344826,0
1A_018,6,1,1,1,69,1,0,1,0,-1,-1,-0,-1,0,0,1,0.525433308037464,0
1A_018,6,1,1,1,70,1,0,1,-1,0,-1,-1,0,-1,0,0,0.506282557209488,0
1A_018,6,1,1,1,71,0,0,0,-1,-1,0,-1,0,0,-1,0,0.555667913635261,1
1A_018,6,1,1,1,72,0,0,0,-0,-1,-1,0,1,0,0,-1,0.813541648851242,1
1A_018,6,1,1,1,73,0,0,0,-0,-0,-1,-1,1,1,0,0,0.472123571496923,1
1A_018,6,1,1,1,74,0,0,0,-0,-0,-0,-1,1,1,1,0,0.462760272901505,1
1A_018,6,1,1,1,75,1,1,1,-0,-0,-0,-0,1,1,1,1,0.397238320671022,1
1A_018,6,1,1,1,76,1,1,1,1,-0,-0,-0,-0,1,1,1,0.461742267711088,1
1A_018,6,1,1,1,77,0,1,1,1,1,-0,-0,-0,-0,1,1,0.583876255434006,1
1A_018,6,1,1,1,78,1,0,0,0,1,1,-0,-1,-0,-0,1,0.476736994751263,1
1A_018,6,1,1,1,79,0,1,1,-1,0,1,1,0,-1,-0,-0,0.662622035422828,1
1A_018,6,1,1,1,80,0,0,0,0,-1,0,1,-1,0,-1,-0,0.541726563184056,1
1A_018,6,1,1,1,81,0,0,0,-0,0,-1,0,1,-1,0,-1,0.793808890448418,1
1A_018,6,1,1,1,82,1,1,1,-0,-0,0,-1,1,1,-1,0,0.52066805731738,1
1A_018,6,1,1,1,83,1,1,1,1,-0,-0,0,-0,1,1,-1,0.647277322015725,1
1A_018,6,1,1,1,84,1,1,1,1,1,-0,-0,-0,-0,1,1,0.518125925620552,1
1A_018,6,1,1,1,85,1,1,1,1,1,1,-0,-0,-0,-0,1,0.465684727532789,1
1A_018,6,1,1,1,86,1,1,1,1,1,1,1,-0,-0,-0,-0,0.606946371786762,1
1A_018,6,1,1,1,87,1,1,1,1,1,1,1,-0,-0,-0,-0,0.562566034670454,1
1A_018,6,1,1,1,88,1,1,1,1,1,1,1,-0,-0,-0,-0,0.467364415701013,1
1A_018,6,1,1,1,89,1,1,1,1,1,1,1,-0,-0,-0,-0,0.525434691400733,1
1A_018,6,1,1,1,90,1,1,1,1,1,1,1,-0,-0,-0,-0,0.532419437367935,1
1A_018,6,1,1,1,91,0,1,0,1,1,1,1,-0,-0,-0,-0,0.50167569500627,0
1A_018,6,1,1,1,92,0,1,0,0,1,1,1,-1,-0,-0,-0,0.47459347336553,0
1A_018,6,1,1,1,93,1,1,0,0,0,1,1,-1,-1,-0,-0,0.426235342340078,0
1A_018,6,1,1,1,94,0,1,0,1,0,0,1,-0,-1,-1,-0,0.5729008493945,0
1A_018,6,1,1,1,95,0,1,0,0,1,0,0,-1,-0,-1,-1,0.561989274341613,0
1A_018,6,1,1,1,96,0,1,0,0,0,1,0,-1,-1,-0,-1,0.43807609169744,0
1A_018,6,1,1,1,97,0,0,1,0,0,0,1,-1,-1,-1,-0,0.492669662868138,0
1A_018,6,1,1,1,98,1,0,1,-0,0,0,0,1,-1,-1,-1,0.451959434489254,0
1A_018,6,1,1,1,99,1,0,1,-1,-0,0,0,0,1,-1,-1,0.600542606203817,0
1A_018,6,1,1,1,100,0,0,1,-1,-1,-0,0,0,0,1,-1,0.488001913647167,0
1A_018,6,1,1,1,101,1,0,1,-0,-1,-1,-0,1,0,0,1,0.487973243696615,0
1A_018,6,1,1,1,102,1,0,1,-1,-0,-1,-1,0,1,0,0,0.523061672283802,0
1A_018,6,1,1,1,103,0,0,1,-1,-1,-0,-1,0,0,1,0,0.484524883679114,0
1A_018,6,1,1,1,104,1,0,1,-0,-1,-1,-0,1,0,0,1,0.838146051682997,0
1A_018,6,1,1,1,105,1,0,1,-1,-0,-1,-1,0,1,0,0,0.547039568074979,0
1A_018,6,1,1,1,106,0,0,0,-1,-1,-0,-1,0,0,1,0,0.580425725434907,1
1A_018,6,1,1,1,107,1,0,0,-0,-1,-1,-0,1,0,0,1,0.476697294681799,1
1A_018,6,1,1,1,108,0,0,0,-1,-0,-1,-1,0,1,0,0,0.517893936426844,1
1A_018,6,1,1,1,109,0,0,0,-0,-1,-0,-1,1,0,1,0,0.509972602769267,1
1A_018,6,1,1,1,110,0,0,0,-0,-0,-1,-0,1,1,0,1,0.561068102077115,1
1A_018,6,1,1,1,111,1,1,1,-0,-0,-0,-1,1,1,1,0,0.675273794389796,1
1A_018,6,1,1,1,112,1,1,1,1,-0,-0,-0,-0,1,1,1,0.475039397366345,1
1A_018,6,1,1,1,113,1,1,1,1,1,-0,-0,-0,-0,1,1,0.527487492654473,1
1A_018,6,1,1,1,114,1,1,1,1,1,1,-0,-0,-0,-0,1,0.683447892835829,1
1A_018,6,1,1,1,115,0,0,0,1,1,1,1,-0,-0,-0,-0,0.638203633541707,1
1A_018,6,1,1,1,116,1,1,1,-0,1,1,1,1,-0,-0,-0,0.511565403139684,1
1A_018,6,1,1,1,117,1,1,1,1,-0,1,1,-0,1,-0,-0,0.574273095990065,1
1A_018,6,1,1,1,118,1,1,1,1,1,-0,1,-0,-0,1,-0,0.491274978616275,1
1A_018,6,1,1,1,119,1,1,1,1,1,1,-0,-0,-0,-0,1,0.62369393411791,1
1A_018,6,1,1,1,120,1,1,1,1,1,1,1,-0,-0,-0,-0,0.608571777120233,1
1A_018,6,1,1,1,121,0,1,1,1,1,1,1,-0,-0,-0,-0,0.544700857775752,1
1A_018,6,1,1,1,122,1,1,1,0,1,1,1,-1,-0,-0,-0,0.479827529576141,1
1A_018,6,1,1,1,123,1,1,1,1,0,1,1,-0,-1,-0,-0,0.535611034778412,1
1A_018,6,1,1,1,124,1,1,1,1,1,0,1,-0,-0,-1,-0,0.562988603720441,1
1A_018,6,1,1,1,125,1,1,1,1,1,1,0,-0,-0,-0,-1,0.498692992841825,1
1A_018,6,1,1,1,126,1,1,0,1,1,1,1,-0,-0,-0,-0,0.608505090815015,0
1A_018,6,1,1,1,127,0,1,0,1,1,1,1,-0,-0,-0,-0,0.789208601810969,0
1A_018,6,1,1,1,128,0,1,0,0,1,1,1,-1,-0,-0,-0,0.478784924023785,0
1A_018,6,1,1,1,129,1,0,1,0,0,1,1,-1,-1,-0,-0,0.435925939294975,0
1A_018,6,1,1,1,130,1,0,1,-1,0,0,1,0,-1,-1,-0,0.466139074531384,0
1A_018,6,1,1,1,131,1,0,1,-1,-1,0,0,0,0,-1,-1,0.473498915671371,0
1A_018,6,1,1,1,132,1,0,1,-1,-1,-1,0,0,0,0,-1,0.472290586214513,0
1A_018,6,1,1,1,133,1,0,1,-1,-1,-1,-1,0,0,0,0,0.531988793169148,0
1A_018,6,1,1,1,134,1,0,1,-1,-1,-1,-1,0,0,0,0,0.479899646132253,0
1A_018,6,1,1,1,135,1,0,1,-1,-1,-1,-1,0,0,0,0,0.524690302554518,0
1A_018,6,1,1,1,136,1,0,1,-1,-1,-1,-1,0,0,0,0,0.567942417052109,0
1A_018,6,1,1,1,137,1,0,1,-1,-1,-1,-1,0,0,0,0,0.488419566012453,0
1A_018,6,1,1,1,138,1,0,1,-1,-1,-1,-1,0,0,0,0,0.656894937274046,0
1A_018,6,1,1,1,139,1,0,1,-1,-1,-1,-1,0,0,0,0,0.621715926390607,0
1A_018,6,1,1,1,140,0,0,1,-1,-1,-1,-1,0,0,0,0,0.492838517180644,0
1A_018,6,1,1,1,141,0,0,1,-0,-1,-1,-1,1,0,0,0,0.472867426462471,0
1A_018,6,1,1,1,142,0,1,0,-0,-0,-1,-1,1,1,0,0,0.61703916505212,0
1A_018,6,1,1,1,143,1,1,0,0,-0,-0,-1,-1,1,1,0,0.473442093934864,0
1A_018,6,1,1,1,144,1,1,0,1,0,-0,-0,-0,-1,1,1,0.421158905839548,0
1A_018,6,1,1,1,145,0,1,0,1,1,0,-0,-0,-0,-1,1,0.510340615641326,0
1A_018,6,1,1,1,146,0,1,0,0,1,1,0,-1,-0,-0,-1,0.459873683459591,0
1A_018,6,1,1,1,147,1,0,1,0,0,1,1,-1,-1,-0,-0,0.469412993872538,0
1A_018,6,1,1,1,148,0,0,1,-1,0,0,1,0,-1,-1,-0,0.916745925962459,0
1A_018,6,1,1,1,149,0,1,0,-0,-1,0,0,1,0,-1,-1,0.605321653478313,0
1A_018,6,1,1,1,150,1,1,0,0,-0,-1,0,-1,1,0,-1,0.789588847022969,0
1A_018,6,1,1,1,151,0,1,0,1,0,-0,-1,-0,-1,1,0,0.468493986874819,0
1A_018,6,1,1,1,152,1,0,1,0,1,0,-0,-1,-0,-1,1,0.564567988505587,0
1A_018,6,1,1,1,153,1,0,1,-1,0,1,0,0,-1,-0,-1,0.482842814351898,0
1A_018,6,1,1,1,154,1,0,1,-1,-1,0,1,0,0,-1,-0,0.513252018310595,0
1A_018,6,1,1,1,155,1,0,1,-1,-1,-1,0,0,0,0,-1,0.590074306295719,0
1A_018,6,1,1,1,156,1,0,1,-1,-1,-1,-1,0,0,0,0,0.468359670077916,0
1A_018,6,1,1,1,157,0,0,1,-1,-1,-1,-1,0,0,0,0,0.47677653178107,0
1A_018,6,1,1,1,158,1,0,1,-0,-1,-1,-1,1,0,0,0,0.428370332578197,0
1A_018,6,1,1,1,159,0,0,1,-1,-0,-1,-1,0,1,0,0,0.414351269137114,0
1A_018,6,1,1,1,160,1,0,1,-0,-1,-0,-1,1,0,1,0,0.541553456103429,0
1A_019,7,1,1,1,1,0,1,0,NaN,NaN,NaN,NaN,NaN,NaN,NaN,NaN,0.765695211315688,0
1A_019,7,1,1,1,2,1,0,1,0,NaN,NaN,NaN,-1,NaN,NaN,NaN,0.832913087934685,0
1A_019,7,1,1,1,3,1,0,1,-1,0,NaN,NaN,0,-1,NaN,NaN,0.732319321811701,0
1A_019,7,1,1,1,4,1,0,1,-1,-1,0,NaN,0,0,-1,NaN,0.744990248874274,0
1A_019,7,1,1,1,5,1,0,1,-1,-1,-1,0,0,0,0,-1,0.55354979416461,0
1A_019,7,1,1,1,6,1,0,1,-1,-1,-1,-1,0,0,0,0,0.824986269163674,0
1A_019,7,1,1,1,7,1,0,1,-1,-1,-1,-1,0,0,0,0,0.853197995442315,0
1A_019,7,1,1,1,8,1,0,1,-1,-1,-1,-1,0,0,0,0,0.654973587887071,0
1A_019,7,1,1,1,9,0,0,1,-1,-1,-1,-1,0,0,0,0,0.551485128714376,0
1A_019,7,1,1,1,10,1,0,1,-0,-1,-1,-1,1,0,0,0,0.771533657122745,0
1A_019,7,1,1,1,11,1,0,1,-1,-0,-1,-1,0,1,0,0,0.840830789459687,0
1A_019,7,1,1,1,12,0,0,1,-1,-1,-0,-1,0,0,1,0,0.648072968041561,0
1A_019,7,1,1,1,13,1,0,1,-0,-1,-1,-0,1,0,0,1,0.675878483499218,0
1A_019,7,1,1,1,14,1,0,1,-1,-0,-1,-1,0,1,0,0,0.534817687491341,0
1A_019,7,1,1,1,15,1,0,1,-1,-1,-0,-1,0,0,1,0,0.529590851678222,0
1A_019,7,1,1,1,16,1,0,1,-1,-1,-1,-0,0,0,0,1,0.550148667749454,0
1A_019,7,1,1,1,17,0,1,0,-1,-1,-1,-1,0,0,0,0,0.903909263603055,0
1A_019,7,1,1,1,18,1,0,1,0,-1,-1,-1,-1,0,0,0,0.840225041433769,0
1A_019,7,1,1,1,19,1,0,1,-1,0,-1,-1,0,-1,0,0,0.54110777563892,0
1A_019,7,1,1,1,20,1,0,1,-1,-1,0,-1,0,0,-1,0,0.596514605637822,0
1A_019,7,1,1,1,21,1,0,1,-1,-1,-1,0,0,0,0,-1,0.519491589479003,0
1A_019,7,1,1,1,22,1,0,1,-1,-1,-1,-1,0,0,0,0,0.566704674405628,0
1A_019,7,1,1,1,23,0,0,1,-1,-1,-1,-1,0,0,0,0,0.608499333373402,0
1A_019,7,1,1,1,24,0,1,0,-0,-1,-1,-1,1,0,0,0,0.649195141144446,0
1A_019,7,1,1,1,25,0,0,1,0,-0,-1,-1,-1,1,0,0,0.658168613750604,0
1A_019,7,1,1,1,26,1,0,1,-0,0,-0,-1,1,-1,1,0,0.560226760629121,0
1A_019,7,1,1,1,27,1,0,1,-1,-0,0,-0,0,1,-1,1,0.658043122552044,0
1A_019,7,1,1,1,28,1,0,1,-1,-1,-0,0,0,0,1,-1,0.778178029391711,0
1A_019,7,1,1,1,29,1,0,1,-1,-1,-1,-0,0,0,0,1,0.550328225871453,0
1A_019,7,1,1,1,30,0,0,1,-1,-1,-1,-1,0,0,0,0,0.606493110857627,0
1A_019,7,1,1,1,31,1,0,1,-0,-1,-1,-1,1,0,0,0,0.60444130445012,0
1A_019,7,1,1,1,32,1,0,1,-1,-0,-1,-1,0,1,0,0,0.517277283905969,0
1A_019,7,1,1,1,33,1,0,1,-1,-1,-0,-1,0,0,1,0,0.498444136359467,0
1A_019,7,1,1,1,34,1,0,1,-1,-1,-1,-0,0,0,0,1,0.571755864308216,0
1A_019,7,1,1,1,35,1,0,1,-1,-1,-1,-1,0,0,0,0,0.464844505593646,0
1A_019,7,1,1,1,36,1,0,1,-1,-1,-1,-1,0,0,0,0,0.564692471964918,0
1A_019,7,1,1,1,37,1,0,1,-1,-1,-1,-1,0,0,0,0,0.526177625740274,0
1A_019,7,1,1,1,38,1,0,1,-1,-1,-1,-1,0,0,0,0,0.611237416963377,0
1A_019,7,1,1,1,39,1,0,1,-1,-1,-1,-1,0,0,0,0,0.554988973094623,0
1A_019,7,1,1,1,40,1,0,1,-1,-1,-1,-1,0,0,0,0,0.553733103773084,0
1A_019,7,1,1,1,41,1,0,1,-1,-1,-1,-1,0,0,0,0,0.592239782737124,0
1A_019,7,1,1,1,42,0,0,1,-1,-1,-1,-1,0,0,0,0,0.586958180627335,0
1A_019,7,1,1,1,43,0,0,1,-0,-1,-1,-1,1,0,0,0,0.747656246240695,0
1A_019,7,1,1,1,44,0,1,0,-0,-0,-1,-1,1,1,0,0,0.707688129034977,0
1A_019,7,1,1,1,45,1,0,1,0,-0,-0,-1,-1,1,1,0,0.807786511755694,0
1A_019,7,1,1,1,46,1,0,1,-1,0,-0,-0,0,-1,1,1,0.763254450859677,0
1A_019,7,1,1,1,47,1,0,1,-1,-1,0,-0,0,0,-1,1,0.521390921515376,0
1A_019,7,1,1,1,48,0,0,1,-1,-1,-1,0,0,0,0,-1,0.630867346325431,0
1A_019,7,1,1,1,49,1,0,1,-0,-1,-1,-1,1,0,0,0,0.587703308406162,0
1A_019,7,1,1,1,50,0,0,1,-1,-0,-1,-1,0,1,0,0,0.563961348022531,0
1A_019,7,1,1,1,51,1,0,1,-0,-1,-0,-1,1,0,1,0,0.654819782602317,0
1A_019,7,1,1,1,52,0,1,0,-1,-0,-1,-0,0,1,0,1,0.562851838485585,0
1A_019,7,1,1,1,53,1,0,1,0,-1,-0,-1,-1,0,1,0,0.524525625191927,0
1A_019,7,1,1,1,54,1,0,1,-1,0,-1,-0,0,-1,0,1,0.622653762848131,0
1A_019,7,1,1,1,55,1,0,1,-1,-1,0,-1,0,0,-1,0,0.580242185933457,0
1A_019,7,1,1,1,56,1,0,0,-1,-1,-1,0,0,0,0,-1,0.587095284828138,1
1A_019,7,1,1,1,57,0,0,0,-1,-1,-1,-1,0,0,0,0,0.534137502840167,1
1A_019,7,1,1,1,58,0,0,0,-0,-1,-1,-1,1,0,0,0,0.593500834369479,1
1A_019,7,1,1,1,59,0,0,0,-0,-0,-1,-1,1,1,0,0,0.543338290428437,1
1A_019,7,1,1,1,60,0,0,0,-0,-0,-0,-1,1,1,1,0,0.654895818129262,1
1A_019,7,1,1,1,61,1,1,1,-0,-0,-0,-0,1,1,1,1,0.802225264645131,1
1A_019,7,1,1,1,62,1,1,1,1,-0,-0,-0,-0,1,1,1,0.586884262601416,1
1A_019,7,1,1,1,63,1,1,1,1,1,-0,-0,-0,-0,1,1,0.674594776253798,1
1A_019,7,1,1,1,64,1,1,1,1,1,1,-0,-0,-0,-0,1,0.652958666813902,1
1A_019,7,1,1,1,65,1,1,1,1,1,1,1,-0,-0,-0,-0,0.644258595973952,1
1A_019,7,1,1,1,66,1,1,1,1,1,1,1,-0,-0,-0,-0,0.617405146223973,1
1A_019,7,1,1,1,67,1,1,1,1,1,1,1,-0,-0,-0,-0,0.897876837148942,1
1A_019,7,1,1,1,68,1,1,1,1,1,1,1,-0,-0,-0,-0,0.674870654396727,1
1A_019,7,1,1,1,69,1,1,1,1,1,1,1,-0,-0,-0,-0,0.576241429086622,1
1A_019,7,1,1,1,70,1,1,1,1,1,1,1,-0,-0,-0,-0,0.682381177405659,1
1A_019,7,1,1,1,71,0,1,0,1,1,1,1,-0,-0,-0,-0,0.587875177767273,0
1A_019,7,1,1,1,72,0,1,0,0,1,1,1,-1,-0,-0,-0,0.674986078698566,0
1A_019,7,1,1,1,73,1,0,1,0,0,1,1,-1,-1,-0,-0,0.7706840417286,0
1A_019,7,1,1,1,74,1,0,1,-1,0,0,1,0,-1,-1,-0,0.618604770639649,0
1A_019,7,1,1,1,75,1,0,1,-1,-1,0,0,0,0,-1,-1,0.595561485023609,0
1A_019,7,1,1,1,76,1,0,1,-1,-1,-1,0,0,0,0,-1,0.641911634387725,0
1A_019,7,1,1,1,77,1,0,1,-1,-1,-1,-1,0,0,0,0,0.705253488511516,0
1A_019,7,1,1,1,78,1,0,1,-1,-1,-1,-1,0,0,0,0,0.608724715639255,0
1A_019,7,1,1,1,79,0,0,1,-1,-1,-1,-1,0,0,0,0,0.689062735407788,0
1A_019,7,1,1,1,80,0,0,1,-0,-1,-1,-1,1,0,0,0,0.64596118028021,0
1A_019,7,1,1,1,81,0,1,0,-0,-0,-1,-1,1,1,0,0,0.713077183327187,0
1A_019,7,1,1,1,82,0,1,0,0,-0,-0,-1,-1,1,1,0,0.639142249755423,0
1A_019,7,1,1,1,83,1,0,1,0,0,-0,-0,-1,-1,1,1,0.694446256198717,0
1A_019,7,1,1,1,84,1,0,1,-1,0,0,-0,0,-1,-1,1,0.470560354932786,0
1A_019,7,1,1,1,85,1,0,1,-1,-1,0,0,0,0,-1,-1,0.475432658019599,0
1A_019,7,1,1,1,86,0,0,1,-1,-1,-1,0,0,0,0,-1,0.516064860927145,0
1A_019,7,1,1,1,87,1,0,1,-0,-1,-1,-1,1,0,0,0,0.844872481521634,0
1A_019,7,1,1,1,88,1,0,1,-1,-0,-1,-1,0,1,0,0,0.662318081117519,0
1A_019,7,1,1,1,89,0,0,1,-1,-1,-0,-1,0,0,1,0,0.552694063515446,0
1A_019,7,1,1,1,90,1,0,1,-0,-1,-1,-0,1,0,0,1,0.80821480913437,0
1A_019,7,1,1,1,91,0,0,0,-1,-0,-1,-1,0,1,0,0,0.603222901212575,1
1A_019,7,1,1,1,92,0,0,0,-0,-1,-0,-1,1,0,1,0,0,1
1A_019,7,1,1,1,93,0,0,0,NaN,-0,-1,-0,NaN,1,0,1,0.585524522502055,1
1A_019,7,1,1,1,94,1,1,1,-0,NaN,-0,-1,1,NaN,1,0,0.808868085461654,1
1A_019,7,1,1,1,95,1,1,1,1,-0,NaN,-0,-0,1,NaN,1,0.705416140382113,1
1A_019,7,1,1,1,96,1,1,1,1,1,-0,NaN,-0,-0,1,NaN,0.76719128406603,1
1A_019,7,1,1,1,97,0,1,1,1,1,1,-0,-0,-0,-0,1,0.801502814534615,1
1A_019,7,1,1,1,98,1,1,1,0,1,1,1,-1,-0,-0,-0,1.0456272454785,1
1A_019,7,1,1,1,99,1,1,1,1,0,1,1,-0,-1,-0,-0,0.711606479810143,1
1A_019,7,1,1,1,100,1,1,1,1,1,0,1,-0,-0,-1,-0,0.606335353261784,1
1A_019,7,1,1,1,101,1,1,1,1,1,1,0,-0,-0,-0,-1,0.637665065092733,1
1A_019,7,1,1,1,102,0,0,0,1,1,1,1,-0,-0,-0,-0,0.648013788643766,1
1A_019,7,1,1,1,103,1,1,1,-0,1,1,1,1,-0,-0,-0,0.885561495048023,1
1A_019,7,1,1,1,104,1,1,1,1,-0,1,1,-0,1,-0,-0,0.776601878584188,1
1A_019,7,1,1,1,105,1,1,1,1,1,-0,1,-0,-0,1,-0,0.707798014488617,1
1A_019,7,1,1,1,106,0,1,0,1,1,1,-0,-0,-0,-0,1,0.668471062057506,0
1A_019,7,1,1,1,107,0,1,0,0,1,1,1,-1,-0,-0,-0,1.10754536803142,0
1A_019,7,1,1,1,108,0,1,0,0,0,1,1,-1,-1,-0,-0,0.76253583477046,0
1A_019,7,1,1,1,109,1,0,1,0,0,0,1,-1,-1,-1,-0,0.724574724995364,0
1A_019,7,1,1,1,110,0,0,1,-1,0,0,0,0,-1,-1,-1,0.542026760295812,0
1A_019,7,1,1,1,111,0,1,0,-0,-1,0,0,1,0,-1,-1,0.82468450018041,0
1A_019,7,1,1,1,112,1,0,1,0,-0,-1,0,-1,1,0,-1,0.769305362417072,0
1A_019,7,1,1,1,113,1,0,1,-1,0,-0,-1,0,-1,1,0,0.542602291925505,0
1A_019,7,1,1,1,114,1,0,1,-1,-1,0,-0,0,0,-1,1,0.631607063902266,0
1A_019,7,1,1,1,115,1,0,1,-1,-1,-1,0,0,0,0,-1,0.621157812395722,0
1A_019,7,1,1,1,116,1,0,1,-1,-1,-1,-1,0,0,0,0,0.540358665142776,0
1A_019,7,1,1,1,117,1,0,1,-1,-1,-1,-1,0,0,0,0,0.51909089912715,0
1A_019,7,1,1,1,118,1,0,1,-1,-1,-1,-1,0,0,0,0,0.525287955278145,0
1A_019,7,1,1,1,119,1,0,1,-1,-1,-1,-1,0,0,0,0,0.658352575283061,0
1A_019,7,1,1,1,120,1,0,1,-1,-1,-1,-1,0,0,0,0,0.574828471470028,0
1A_019,7,1,1,1,121,1,0,1,-1,-1,-1,-1,0,0,0,0,0.560059071468459,0
1A_019,7,1,1,1,122,1,0,1,-1,-1,-1,-1,0,0,0,0,0.528813983787586,0
1A_019,7,1,1,1,123,1,0,1,-1,-1,-1,-1,0,0,0,0,0.643106291685399,0
1A_019,7,1,1,1,124,0,0,1,-1,-1,-1,-1,0,0,0,0,0.553307816070628,0
1A_019,7,1,1,1,125,1,0,1,-0,-1,-1,-1,1,0,0,0,0.584947020730397,0
1A_019,7,1,1,1,126,0,0,0,-1,-0,-1,-1,0,1,0,0,0.551240085809695,1
1A_019,7,1,1,1,127,0,0,0,-0,-1,-0,-1,1,0,1,0,0.944031391595672,1
1A_019,7,1,1,1,128,0,1,1,-0,-0,-1,-0,1,1,0,1,0.541860637288664,1
1A_019,7,1,1,1,129,1,1,1,0,-0,-0,-1,-1,1,1,0,0.528286676824791,1
1A_019,7,1,1,1,130,1,1,1,1,0,-0,-0,-0,-1,1,1,0.848160794672367,1
1A_019,7,1,1,1,131,0,1,1,1,1,0,-0,-0,-0,-1,1,0.981162308699822,1
1A_019,7,1,1,1,132,0,0,0,0,1,1,0,-1,-0,-0,-1,0.963969154737242,1
1A_019,7,1,1,1,133,0,1,1,-0,0,1,1,1,-1,-0,-0,0.78813152091152,1
1A_019,7,1,1,1,134,1,1,1,0,-0,0,1,-1,1,-1,-0,1.06339456006026,1
1A_019,7,1,1,1,135,1,1,1,1,0,-0,0,-0,-1,1,-1,0.819385949383104,1
1A_019,7,1,1,1,136,1,1,1,1,1,0,-0,-0,-0,-1,1,0.64906049527599,1
1A_019,7,1,1,1,137,1,1,1,1,1,1,0,-0,-0,-0,-1,0.645526249048089,1
1A_019,7,1,1,1,138,1,1,1,1,1,1,1,-0,-0,-0,-0,0.867422420707044,1
1A_019,7,1,1,1,139,1,1,1,1,1,1,1,-0,-0,-0,-0,0.812067597605164,1
1A_019,7,1,1,1,140,1,1,1,1,1,1,1,-0,-0,-0,-0,0.679167450913155,1
1A_019,7,1,1,1,141,1,1,1,1,1,1,1,-0,-0,-0,-0,0.756124112836005,1
1A_019,7,1,1,1,142,1,1,1,1,1,1,1,-0,-0,-0,-0,0.704308382452837,1
1A_019,7,1,1,1,143,0,1,1,1,1,1,1,-0,-0,-0,-0,0.68464756238518,1
1A_019,7,1,1,1,144,0,0,0,0,1,1,1,-1,-0,-0,-0,0.788464661106445,1
1A_019,7,1,1,1,145,1,1,1,-0,0,1,1,1,-1,-0,-0,0.754126473595534,1
1A_019,7,1,1,1,146,0,1,1,1,-0,0,1,-0,1,-1,-0,0.733283677172039,1
1A_019,7,1,1,1,147,0,1,1,0,1,-0,0,-1,-0,1,-1,0.757683715933126,1
1A_019,7,1,1,1,148,1,1,1,0,0,1,-0,-1,-1,-0,1,0.829883666145179,1
1A_019,7,1,1,1,149,1,1,1,1,0,0,1,-0,-1,-1,-0,0.699843986994892,1
1A_019,7,1,1,1,150,1,1,1,1,1,0,0,-0,-0,-1,-1,0.587198875255126,1
1A_019,7,1,1,1,151,1,1,1,1,1,1,0,-0,-0,-0,-1,0.553103492521586,1
1A_019,7,1,1,1,152,1,1,1,1,1,1,1,-0,-0,-0,-0,0.563269790956838,1
1A_019,7,1,1,1,153,1,1,1,1,1,1,1,-0,-0,-0,-0,0.652740577007535,1
1A_019,7,1,1,1,154,1,1,1,1,1,1,1,-0,-0,-0,-0,0.576477199366309,1
1A_019,7,1,1,1,155,0,1,1,1,1,1,1,-0,-0,-0,-0,0.67585991586111,1
1A_019,7,1,1,1,156,0,1,1,0,1,1,1,-1,-0,-0,-0,0.852734960637463,1
1A_019,7,1,1,1,157,0,0,0,0,0,1,1,-1,-1,-0,-0,0.610760986807691,1
1A_019,7,1,1,1,158,1,0,0,-0,0,0,1,1,-1,-1,-0,0.619175625860407,1
1A_019,7,1,1,1,159,0,0,0,-1,-0,0,0,0,1,-1,-1,0.571420889303226,1
1A_019,7,1,1,1,160,1,1,1,-0,-1,-0,0,1,0,1,-1,0.586208802143119,1
1A_020,8,1,1,1,1,0,0,0,NaN,NaN,NaN,NaN,NaN,NaN,NaN,NaN,0,0
1A_020,8,1,1,1,2,0,1,0,NaN,NaN,NaN,NaN,NaN,NaN,NaN,NaN,0.377488501944754,0
1A_020,8,1,1,1,3,1,0,1,0,NaN,NaN,NaN,-1,NaN,NaN,NaN,0.901027687557871,0
1A_020,8,1,1,1,4,1,0,1,-1,0,NaN,NaN,0,-1,NaN,NaN,0.644183720945875,0
1A_020,8,1,1,1,5,1,0,1,-1,-1,0,NaN,0,0,-1,NaN,0.669855154243123,0
1A_020,8,1,1,1,6,1,0,1,-1,-1,-1,0,0,0,0,-1,0.763013117004448,0
1A_020,8,1,1,1,7,1,0,1,-1,-1,-1,-1,0,0,0,0,0.596082819412914,0
1A_020,8,1,1,1,8,0,0,1,-1,-1,-1,-1,0,0,0,0,0.733673550797903,0
1A_020,8,1,1,1,9,1,0,1,-0,-1,-1,-1,1,0,0,0,0.60145389984973,0
1A_020,8,1,1,1,10,1,1,0,-1,-0,-1,-1,0,1,0,0,0.64884939251715,0
1A_020,8,1,1,1,11,0,1,0,1,-1,-0,-1,-0,0,1,0,0.661825752504228,0
1A_020,8,1,1,1,12,0,1,0,0,1,-1,-0,-1,-0,0,1,0.796946747397669,0
1A_020,8,1,1,1,13,0,1,0,0,0,1,-1,-1,-1,-0,0,0.595491772590321,0
1A_020,8,1,1,1,14,1,0,1,0,0,0,1,-1,-1,-1,-0,0.778063374635167,0
1A_020,8,1,1,1,15,0,1,0,-1,0,0,0,0,-1,-1,-1,0.700062946256367,0
1A_020,8,1,1,1,16,1,0,1,0,-1,0,0,-1,0,-1,-1,0.519595653395299,0
1A_020,8,1,1,1,17,1,0,1,-1,0,-1,0,0,-1,0,-1,0.50129368425587,0
1A_020,8,1,1,1,18,1,0,1,-1,-1,0,-1,0,0,-1,0,0.403100520270527,0
1A_020,8,1,1,1,19,0,1,0,-1,-1,-1,0,0,0,0,-1,0.549909799912712,0
1A_020,8,1,1,1,20,1,0,1,0,-1,-1,-1,-1,0,0,0,0.50568496865526,0
1A_020,8,1,1,1,21,0,1,0,-1,0,-1,-1,0,-1,0,0,0.600316624897459,0
1A_020,8,1,1,1,22,0,1,0,0,-1,0,-1,-1,0,-1,0,0.537234840343444,0
1A_020,8,1,1,1,23,0,1,0,0,0,-1,0,-1,-1,0,-1,0.637880320315162,0
1A_020,8,1,1,1,24,0,0,1,0,0,0,-1,-1,-1,-1,0,0.445124757074154,0
1A_020,8,1,1,1,25,1,0,1,-0,0,0,0,1,-1,-1,-1,0.575432647994603,0
1A_020,8,1,1,1,26,1,0,1,-1,-0,0,0,0,1,-1,-1,0.652802147240436,0
1A_020,8,1,1,1,27,1,0,1,-1,-1,-0,0,0,0,1,-1,0.664539265808344,0
1A_020,8,1,1,1,28,0,0,1,-1,-1,-1,-0,0,0,0,1,0.811375132656394,0
1A_020,8,1,1,1,29,1,0,1,-0,-1,-1,-1,1,0,0,0,0.723749140570362,0
1A_020,8,1,1,1,30,1,0,1,-1,-0,-1,-1,0,1,0,0,0.886909774852029,0
1A_020,8,1,1,1,31,1,1,0,-1,-1,-0,-1,0,0,1,0,0.90265709832056,0
1A_020,8,1,1,1,32,0,0,1,1,-1,-1,-0,-0,0,0,1,0.644775677652433,0
1A_020,8,1,1,1,33,0,1,0,-0,1,-1,-1,1,-0,0,0,0.519666796984893,0
1A_020,8,1,1,1,34,1,1,0,0,-0,1,-1,-1,1,-0,0,0.846586581257725,0
1A_020,8,1,1,1,35,1,0,1,1,0,-0,1,-0,-1,1,-0,0.643002102797254,0
1A_020,8,1,1,1,36,1,0,1,-1,1,0,-0,0,-0,-1,1,0.624509420318645,0
1A_020,8,1,1,1,37,0,0,1,-1,-1,1,0,0,0,-0,-1,0.606876448533512,0
1A_020,8,1,1,1,38,0,1,0,-0,-1,-1,1,1,0,0,-0,0.464040175360424,0
1A_020,8,1,1,1,39,1,0,1,0,-0,-1,-1,-1,1,0,0,0.626635154776523,0
1A_020,8,1,1,1,40,1,0,1,-1,0,-0,-1,0,-1,1,0,0.54165266984819,0
1A_020,8,1,1,1,41,0,1,0,-1,-1,0,-0,0,0,-1,1,0.586879505994148,0
1A_020,8,1,1,1,42,0,1,0,0,-1,-1,0,-1,0,0,-1,0.585136826523012,0
1A_020,8,1,1,1,43,1,0,1,0,0,-1,-1,-1,-1,0,0,0.510058332331027,0
1A_020,8,1,1,1,44,1,0,1,-1,0,0,-1,0,-1,-1,0,0.536025800285643,0
1A_020,8,1,1,1,45,1,0,1,-1,-1,0,0,0,0,-1,-1,0.795603116603161,0
1A_020,8,1,1,1,46,1,0,1,-1,-1,-1,0,0,0,0,-1,0.609817750311777,0
1A_020,8,1,1,1,47,1,0,1,-1,-1,-1,-1,0,0,0,0,0.545703912546742,0
1A_020,8,1,1,1,48,0,0,1,-1,-1,-1,-1,0,0,0,0,0.542365304008854,0
1A_020,8,1,1,1,49,0,1,0,-0,-1,-1,-1,1,0,0,0,0.789711576246191,0
1A_020,8,1,1,1,50,1,0,1,0,-0,-1,-1,-1,1,0,0,0.577020750632073,0
1A_020,8,1,1,1,51,0,1,0,-1,0,-0,-1,0,-1,1,0,0.552632077267845,0
1A_020,8,1,1,1,52,1,0,1,0,-1,0,-0,-1,0,-1,1,0.611590811578935,0
1A_020,8,1,1,1,53,1,0,1,-1,0,-1,0,0,-1,0,-1,0.53243309174286,0
1A_020,8,1,1,1,54,1,0,1,-1,-1,0,-1,0,0,-1,0,0.475551410441767,0
1A_020,8,1,1,1,55,0,1,0,-1,-1,-1,0,0,0,0,-1,0.573093347768008,0
1A_020,8,1,1,1,56,0,0,0,0,-1,-1,-1,-1,0,0,0,0.516450474156954,1
1A_020,8,1,1,1,57,1,1,1,-0,0,-1,-1,1,-1,0,0,0.58765934881194,1
1A_020,8,1,1,1,58,0,0,0,1,-0,0,-1,-0,1,-1,0,0,1
1A_020,8,1,1,1,59,0,1,1,NaN,1,-0,0,NaN,-0,1,-1,0.557238659663199,1
1A_020,8,1,1,1,60,0,1,1,0,NaN,1,-0,-1,NaN,-0,1,0.560658013218926,1
1A_020,8,1,1,1,61,1,1,1,0,0,NaN,1,-1,-1,NaN,-0,0.533482963430288,1
1A_020,8,1,1,1,62,1,1,1,1,0,0,NaN,-0,-1,-1,NaN,0.522955489059314,1
1A_020,8,1,1,1,63,0,1,1,1,1,0,0,-0,-0,-1,-1,0.646243995348414,1
1A_020,8,1,1,1,64,0,0,0,0,1,1,0,-1,-0,-0,-1,0.559071842630146,1
1A_020,8,1,1,1,65,0,0,0,-0,0,1,1,1,-1,-0,-0,0.449943409252228,1
1A_020,8,1,1,1,66,0,1,1,-0,-0,0,1,1,1,-1,-0,0.486319479530721,1
1A_020,8,1,1,1,67,1,1,1,0,-0,-0,0,-1,1,1,-1,0.43049079487173,1
1A_020,8,1,1,1,68,0,0,0,1,0,-0,-0,-0,-1,1,1,0.532162709343538,1
1A_020,8,1,1,1,69,1,1,1,-0,1,0,-0,1,-0,-1,1,0.559820960477737,1
1A_020,8,1,1,1,70,0,0,0,1,-0,1,0,-0,1,-0,-1,0.642244777256565,1
1A_020,8,1,1,1,71,1,0,1,-0,1,-0,1,1,-0,1,-0,0.726963488579713,0
1A_020,8,1,1,1,72,0,1,0,-1,-0,1,-0,0,1,-0,1,0.502101319552821,0
1A_020,8,1,1,1,73,1,1,0,0,-1,-0,1,-1,0,1,-0,0.498802768755922,0
1A_020,8,1,1,1,74,0,1,0,1,0,-1,-0,-0,-1,0,1,0.627415235841909,0
1A_020,8,1,1,1,75,0,1,0,0,1,0,-1,-1,-0,-1,0,0.460331949958345,0
1A_020,8,1,1,1,76,0,1,0,0,0,1,0,-1,-1,-0,-1,0.468782616917451,0
1A_020,8,1,1,1,77,1,0,1,0,0,0,1,-1,-1,-1,-0,0.525697564724396,0
1A_020,8,1,1,1,78,1,0,1,-1,0,0,0,0,-1,-1,-1,0.492479610247756,0
1A_020,8,1,1,1,79,0,1,0,-1,-1,0,0,0,0,-1,-1,0.490901191240482,0
1A_020,8,1,1,1,80,1,1,0,0,-1,-1,0,-1,0,0,-1,0.480841974416762,0
1A_020,8,1,1,1,81,1,0,1,1,0,-1,-1,-0,-1,0,0,0.55822328481554,0
1A_020,8,1,1,1,82,0,1,0,-1,1,0,-1,0,-0,-1,0,0.662472415358934,0
1A_020,8,1,1,1,83,1,0,1,0,-1,1,0,-1,0,-0,-1,0.412435720823851,0
1A_020,8,1,1,1,84,0,1,0,-1,0,-1,1,0,-1,0,-0,0.610863035806688,0
1A_020,8,1,1,1,85,0,1,0,0,-1,0,-1,-1,0,-1,0,0.453169919604989,0
1A_020,8,1,1,1,86,1,1,0,0,0,-1,0,-1,-1,0,-1,0.528197632223964,0
1A_020,8,1,1,1,87,1,0,1,1,0,0,-1,-0,-1,-1,0,0.454581937261537,0
1A_020,8,1,1,1,88,1,0,1,-1,1,0,0,0,-0,-1,-1,0.454817522420853,0
1A_020,8,1,1,1,89,1,1,0,-1,-1,1,0,0,0,-0,-1,0.486776474597718,0
1A_020,8,1,1,1,90,0,1,0,1,-1,-1,1,-0,0,0,-0,0.593663135383395,0
1A_020,8,1,1,1,91,0,0,0,0,1,-1,-1,-1,-0,0,0,0.583508159910707,1
1A_020,8,1,1,1,92,1,1,1,-0,0,1,-1,1,-1,-0,0,0.468750190464561,1
1A_020,8,1,1,1,93,0,0,0,1,-0,0,1,-0,1,-1,-0,0.369442900677313,1
1A_020,8,1,1,1,94,1,1,1,-0,1,-0,0,1,-0,1,-1,0.45795993991851,1
1A_020,8,1,1,1,95,0,0,0,1,-0,1,-0,-0,1,-0,1,0.560246416256632,1
1A_020,8,1,1,1,96,0,0,0,-0,1,-0,1,1,-0,1,-0,0.588771021291905,1
1A_020,8,1,1,1,97,0,0,0,-0,-0,1,-0,1,1,-0,1,0.525655010893388,1
1A_020,8,1,1,1,98,0,0,0,-0,-0,-0,1,1,1,1,-0,0.562910919978094,1
1A_020,8,1,1,1,99,0,0,0,-0,-0,-0,-0,1,1,1,1,0.494764615661552,1
1A_020,8,1,1,1,100,0,0,0,-0,-0,-0,-0,1,1,1,1,0.536780709931918,1
1A_020,8,1,1,1,101,1,1,1,-0,-0,-0,-0,1,1,1,1,0.534955586630531,1
1A_020,8,1,1,1,102,0,0,0,1,-0,-0,-0,-0,1,1,1,0.393520883289966,1
1A_020,8,1,1,1,103,0,0,0,-0,1,-0,-0,1,-0,1,1,0.544986386783421,1
1A_020,8,1,1,1,104,1,1,1,-0,-0,1,-0,1,1,-0,1,0.413572504578042,1
1A_020,8,1,1,1,105,0,1,1,1,-0,-0,1,-0,1,1,-0,0.479762663231668,1
1A_020,8,1,1,1,106,0,1,0,0,1,-0,-0,-1,-0,1,1,0.434526680099225,0
1A_020,8,1,1,1,107,1,0,1,0,0,1,-0,-1,-1,-0,1,0.904390921181403,0
1A_020,8,1,1,1,108,1,0,1,-1,0,0,1,0,-1,-1,-0,0.645831160698435,0
1A_020,8,1,1,1,109,1,0,1,-1,-1,0,0,0,0,-1,-1,0.633078772203589,0
1A_020,8,1,1,1,110,1,0,1,-1,-1,-1,0,0,0,0,-1,0.648752125185638,0
1A_020,8,1,1,1,111,1,0,1,-1,-1,-1,-1,0,0,0,0,0.613058262159029,0
1A_020,8,1,1,1,112,0,0,1,-1,-1,-1,-1,0,0,0,0,0.768682044188608,0
1A_020,8,1,1,1,113,1,0,1,-0,-1,-1,-1,1,0,0,0,0.581566371947702,0
1A_020,8,1,1,1,114,1,0,1,-1,-0,-1,-1,0,1,0,0,0.627579917665571,0
1A_020,8,1,1,1,115,1,0,1,-1,-1,-0,-1,0,0,1,0,0.5808199981293,0
1A_020,8,1,1,1,116,1,0,1,-1,-1,-1,-0,0,0,0,1,0.643265141947268,0
1A_020,8,1,1,1,117,1,0,1,-1,-1,-1,-1,0,0,0,0,0.612308402502094,0
1A_020,8,1,1,1,118,1,0,1,-1,-1,-1,-1,0,0,0,0,0.562830812183165,0
1A_020,8,1,1,1,119,1,0,1,-1,-1,-1,-1,0,0,0,0,0.574854840811895,0
1A_020,8,1,1,1,120,1,0,1,-1,-1,-1,-1,0,0,0,0,0.595177851624612,0
1A_020,8,1,1,1,121,1,0,1,-1,-1,-1,-1,0,0,0,0,0.549508102438267,0
1A_020,8,1,1,1,122,1,0,1,-1,-1,-1,-1,0,0,0,0,0.535704717176486,0
1A_020,8,1,1,1,123,1,0,1,-1,-1,-1,-1,0,0,0,0,0.632391600503979,0
1A_020,8,1,1,1,124,1,0,1,-1,-1,-1,-1,0,0,0,0,0.611258558215923,0
1A_020,8,1,1,1,125,1,0,1,-1,-1,-1,-1,0,0,0,0,0.595528487174306,0
1A_020,8,1,1,1,126,0,0,0,-1,-1,-1,-1,0,0,0,0,0.561803420347132,1
1A_020,8,1,1,1,127,0,0,0,-0,-1,-1,-1,1,0,0,0,0.589367782389672,1
1A_020,8,1,1,1,128,1,1,1,-0,-0,-1,-1,1,1,0,0,0.655985206571131,1
1A_020,8,1,1,1,129,1,1,1,1,-0,-0,-1,-0,1,1,0,0.674805164602731,1
1A_020,8,1,1,1,130,1,1,1,1,1,-0,-0,-0,-0,1,1,0.662413742196804,1
1A_020,8,1,1,1,131,0,1,1,1,1,1,-0,-0,-0,-0,1,0.609350256961989,1
1A_020,8,1,1,1,132,1,1,1,0,1,1,1,-1,-0,-0,-0,0.978051445526944,1
1A_020,8,1,1,1,133,1,1,1,1,0,1,1,-0,-1,-0,-0,0.667820126107472,1
1A_020,8,1,1,1,134,0,1,1,1,1,0,1,-0,-0,-1,-0,0.612556625834259,1
1A_020,8,1,1,1,135,1,0,0,0,1,1,0,-1,-0,-0,-1,0.854621842294364,1
1A_020,8,1,1,1,136,0,0,0,-1,0,1,1,0,-1,-0,-0,1.15244810069817,1
1A_020,8,1,1,1,137,1,1,1,-0,-1,0,1,1,0,-1,-0,0.715323524398627,1
1A_020,8,1,1,1,138,0,1,1,1,-0,-1,0,-0,1,0,-1,0.758393713327678,1
1A_020,8,1,1,1,139,0,0,0,0,1,-0,-1,-1,-0,1,0,0.834490231163727,1
1A_020,8,1,1,1,140,0,1,1,-0,0,1,-0,1,-1,-0,1,0.851804811407419,1
1A_020,8,1,1,1,141,0,0,0,0,-0,0,1,-1,1,-1,-0,1.15988131540871,1
1A_020,8,1,1,1,142,0,0,0,-0,0,-0,0,1,-1,1,-1,0.537387011976534,1
1A_020,8,1,1,1,143,1,1,1,-0,-0,0,-0,1,1,-1,1,0.608448507022331,1
1A_020,8,1,1,1,144,1,1,1,1,-0,-0,0,-0,1,1,-1,0.603731514896936,1
1A_020,8,1,1,1,145,1,1,1,1,1,-0,-0,-0,-0,1,1,0.628253739123465,1
1A_020,8,1,1,1,146,1,1,1,1,1,1,-0,-0,-0,-0,1,0.625391959047192,1
1A_020,8,1,1,1,147,1,1,1,1,1,1,1,-0,-0,-0,-0,0.617836363058814,1
1A_020,8,1,1,1,148,0,1,1,1,1,1,1,-0,-0,-0,-0,0.743889485343971,1
1A_020,8,1,1,1,149,0,0,0,0,1,1,1,-1,-0,-0,-0,0.608671252855856,1
1A_020,8,1,1,1,150,1,0,0,-0,0,1,1,1,-1,-0,-0,0.574151419463306,1
1A_020,8,1,1,1,151,0,0,0,-1,-0,0,1,0,1,-1,-0,0.619681159696484,1
1A_020,8,1,1,1,152,0,0,0,-0,-1,-0,0,1,0,1,-1,0.60754094490585,1
1A_020,8,1,1,1,153,0,1,1,-0,-0,-1,-0,1,1,0,1,0.644856251921738,1
1A_020,8,1,1,1,154,1,1,1,0,-0,-0,-1,-1,1,1,0,0.604401592552676,1
1A_020,8,1,1,1,155,0,0,0,1,0,-0,-0,-0,-1,1,1,0.735758964539855,1
1A_020,8,1,1,1,156,1,1,1,-0,1,0,-0,1,-0,-1,1,1.00400230061314,1
1A_020,8,1,1,1,157,1,1,1,1,-0,1,0,-0,1,-0,-1,0.592706819639716,1
1A_020,8,1,1,1,158,1,1,1,1,1,-0,1,-0,-0,1,-0,0.593795501021305,1
1A_020,8,1,1,1,159,1,1,1,1,1,1,-0,-0,-0,-0,1,0.702484640189141,1
1A_020,8,1,1,1,160,0,1,1,1,1,1,1,-0,-0,-0,-0,0.661400853081432,1
1A_027,9,1,1,1,1,0,1,1,NaN,NaN,NaN,NaN,NaN,NaN,NaN,NaN,0.963889477832709,1
1A_027,9,1,1,1,2,0,1,1,0,NaN,NaN,NaN,-1,NaN,NaN,NaN,0.826327283022692,1
1A_027,9,1,1,1,3,1,1,1,0,0,NaN,NaN,-1,-1,NaN,NaN,0.579857651959173,1
1A_027,9,1,1,1,4,1,1,1,1,0,0,NaN,-0,-1,-1,NaN,0.625837070401758,1
1A_027,9,1,1,1,5,1,1,1,1,1,0,0,-0,-0,-1,-1,0.496050144865876,1
1A_027,9,1,1,1,6,1,1,1,1,1,1,0,-0,-0,-0,-1,0.935855535120936,1
1A_027,9,1,1,1,7,1,1,1,1,1,1,1,-0,-0,-0,-0,0.811847195291193,1
1A_027,9,1,1,1,8,1,1,1,1,1,1,1,-0,-0,-0,-0,0.516819034761284,1
1A_027,9,1,1,1,9,1,1,1,1,1,1,1,-0,-0,-0,-0,0.800589163060067,1
1A_027,9,1,1,1,10,0,1,1,1,1,1,1,-0,-0,-0,-0,0.59146487704129,1
1A_027,9,1,1,1,11,1,1,1,0,1,1,1,-1,-0,-0,-0,0.598882675083587,1
1A_027,9,1,1,1,12,1,1,1,1,0,1,1,-0,-1,-0,-0,0.682764920813497,1
1A_027,9,1,1,1,13,1,1,1,1,1,0,1,-0,-0,-1,-0,0.586492689355509,1
1A_027,9,1,1,1,14,1,1,1,1,1,1,0,-0,-0,-0,-1,0.951112599286716,1
1A_027,9,1,1,1,15,1,1,1,1,1,1,1,-0,-0,-0,-0,0.516771034192061,1
1A_027,9,1,1,1,16,0,1,1,1,1,1,1,-0,-0,-0,-0,0.544639768369962,1
1A_027,9,1,1,1,17,1,1,1,0,1,1,1,-1,-0,-0,-0,0.531827638245886,1
1A_027,9,1,1,1,18,1,1,1,1,0,1,1,-0,-1,-0,-0,0.71103506613872,1
1A_027,9,1,1,1,19,1,1,1,1,1,0,1,-0,-0,-1,-0,0.540366961504333,1
1A_027,9,1,1,1,20,0,1,1,1,1,1,0,-0,-0,-0,-1,0.531231100088917,1
1A_027,9,1,1,1,21,1,1,1,0,1,1,1,-1,-0,-0,-0,0.597713731054682,1
1A_027,9,1,1,1,22,1,1,1,1,0,1,1,-0,-1,-0,-0,0.629061028244905,1
1A_027,9,1,1,1,23,0,1,1,1,1,0,1,-0,-0,-1,-0,0.701920574880205,1
1A_027,9,1,1,1,24,0,1,1,0,1,1,0,-1,-0,-0,-1,0.49699573018006,1
1A_027,9,1,1,1,25,1,1,1,0,0,1,1,-1,-1,-0,-0,0.574430722161196,1
1A_027,9,1,1,1,26,1,1,1,1,0,0,1,-0,-1,-1,-0,0.512871990533313,1
1A_027,9,1,1,1,27,1,1,1,1,1,0,0,-0,-0,-1,-1,0.550139674800448,1
1A_027,9,1,1,1,28,1,1,1,1,1,1,0,-0,-0,-0,-1,0.678283022949472,1
1A_027,9,1,1,1,29,0,1,1,1,1,1,1,-0,-0,-0,-0,0.59980182047002,1
1A_027,9,1,1,1,30,1,1,1,0,1,1,1,-1,-0,-0,-0,0.571876033791341,1
1A_027,9,1,1,1,31,0,1,1,1,0,1,1,-0,-1,-0,-0,0.559292039106367,1
1A_027,9,1,1,1,32,1,1,1,0,1,0,1,-1,-0,-1,-0,0.547896060656058,1
1A_027,9,1,1,1,33,1,1,1,1,0,1,0,-0,-1,-0,-1,0.494463033188367,1
1A_027,9,1,1,1,34,1,1,1,1,1,0,1,-0,-0,-1,-0,0.576527673983946,1
1A_027,9,1,1,1,35,0,1,1,1,1,1,0,-0,-0,-0,-1,0.652262218180113,1
1A_027,9,1,1,1,36,1,1,1,0,1,1,1,-1,-0,-0,-0,0.542667272617109,1
1A_027,9,1,1,1,37,1,1,1,1,0,1,1,-0,-1,-0,-0,0.560083102493081,1
1A_027,9,1,1,1,38,1,1,1,1,1,0,1,-0,-0,-1,-0,0.592636688466882,1
1A_027,9,1,1,1,39,1,1,1,1,1,1,0,-0,-0,-0,-1,0.518843843688956,1
1A_027,9,1,1,1,40,0,1,1,1,1,1,1,-0,-0,-0,-0,0.685452428122517,1
1A_027,9,1,1,1,41,1,1,1,0,1,1,1,-1,-0,-0,-0,0.51194014630164,1
1A_027,9,1,1,1,42,0,1,1,1,0,1,1,-0,-1,-0,-0,0.664339174923953,1
1A_027,9,1,1,1,43,1,1,1,0,1,0,1,-1,-0,-1,-0,0.6245881926734,1
1A_027,9,1,1,1,44,1,1,1,1,0,1,0,-0,-1,-0,-1,0.576364773471141,1
1A_027,9,1,1,1,45,0,1,1,1,1,0,1,-0,-0,-1,-0,0.688639793428592,1
1A_027,9,1,1,1,46,1,1,1,0,1,1,0,-1,-0,-0,-1,0.570415841590147,1
1A_027,9,1,1,1,47,1,1,1,1,0,1,1,-0,-1,-0,-0,0.555000766908051,1
1A_027,9,1,1,1,48,1,1,1,1,1,0,1,-0,-0,-1,-0,0.562204885005485,1
1A_027,9,1,1,1,49,1,1,1,1,1,1,0,-0,-0,-0,-1,0.56164910964435,1
1A_027,9,1,1,1,50,0,1,1,1,1,1,1,-0,-0,-0,-0,0.58211156676407,1
1A_027,9,1,1,1,51,1,1,1,0,1,1,1,-1,-0,-0,-0,0.501625128410524,1
1A_027,9,1,1,1,52,1,1,1,1,0,1,1,-0,-1,-0,-0,0.563098949060077,1
1A_027,9,1,1,1,53,1,1,1,1,1,0,1,-0,-0,-1,-0,0.511902894766536,1
1A_027,9,1,1,1,54,0,1,1,1,1,1,0,-0,-0,-0,-1,0.653864313993836,1
1A_027,9,1,1,1,55,1,1,1,0,1,1,1,-1,-0,-0,-0,0.65467231432558,1
1A_027,9,1,1,1,56,0,1,0,1,0,1,1,-0,-1,-0,-0,0.943322694423841,0
1A_027,9,1,1,1,57,1,1,0,0,1,0,1,-1,-0,-1,-0,0.547627259977162,0
1A_027,9,1,1,1,58,0,1,0,1,0,1,0,-0,-1,-0,-1,0.668466331291711,0
1A_027,9,1,1,1,59,0,1,0,0,1,0,1,-1,-0,-1,-0,0.540696856944123,0
1A_027,9,1,1,1,60,0,1,0,0,0,1,0,-1,-1,-0,-1,0.594613590044901,0
1A_027,9,1,1,1,61,0,1,0,0,0,0,1,-1,-1,-1,-0,0.63267046312103,0
1A_027,9,1,1,1,62,0,1,0,0,0,0,0,-1,-1,-1,-1,0.698056735360296,0
1A_027,9,1,1,1,63,0,1,0,0,0,0,0,-1,-1,-1,-1,0.586421103507746,0
1A_027,9,1,1,1,64,0,1,0,0,0,0,0,-1,-1,-1,-1,0.903013094823109,0
1A_027,9,1,1,1,65,0,1,0,0,0,0,0,-1,-1,-1,-1,0.60456239094492,0
1A_027,9,1,1,1,66,0,1,0,0,0,0,0,-1,-1,-1,-1,0.714756130240858,0
1A_027,9,1,1,1,67,1,0,1,0,0,0,0,-1,-1,-1,-1,0.548109437164385,0
1A_027,9,1,1,1,68,1,0,1,-1,0,0,0,0,-1,-1,-1,0.617953480716096,0
1A_027,9,1,1,1,69,1,0,1,-1,-1,0,0,0,0,-1,-1,0.529151724389521,0
1A_027,9,1,1,1,70,0,0,1,-1,-1,-1,0,0,0,0,-1,0.542052798031364,0
1A_027,9,1,1,1,71,0,0,0,-0,-1,-1,-1,1,0,0,0,0.489605146634858,1
1A_027,9,1,1,1,72,1,0,0,-0,-0,-1,-1,1,1,0,0,0.578739570220932,1
1A_027,9,1,1,1,73,1,0,0,-1,-0,-0,-1,0,1,1,0,0.65546694380464,1
1A_027,9,1,1,1,74,0,0,0,-1,-1,-0,-0,0,0,1,1,0.514375208411366,1
1A_027,9,1,1,1,75,1,0,0,-0,-1,-1,-0,1,0,0,1,0.442900661641033,1
1A_027,9,1,1,1,76,0,0,0,-1,-0,-1,-1,0,1,0,0,0.818245571630541,1
1A_027,9,1,1,1,77,0,0,0,-0,-1,-0,-1,1,0,1,0,0.756906331545906,1
1A_027,9,1,1,1,78,0,0,0,-0,-0,-1,-0,1,1,0,1,0.676056116848486,1
1A_027,9,1,1,1,79,0,0,0,-0,-0,-0,-1,1,1,1,0,0.651769151882036,1
1A_027,9,1,1,1,80,1,1,1,-0,-0,-0,-0,1,1,1,1,0.528615837916732,1
1A_027,9,1,1,1,81,1,1,1,1,-0,-0,-0,-0,1,1,1,0.912009122403106,1
1A_027,9,1,1,1,82,1,1,1,1,1,-0,-0,-0,-0,1,1,0.496209290809929,1
1A_027,9,1,1,1,83,1,1,1,1,1,1,-0,-0,-0,-0,1,0.873854441422736,1
1A_027,9,1,1,1,84,1,1,1,1,1,1,1,-0,-0,-0,-0,0.556523302249843,1
1A_027,9,1,1,1,85,1,1,1,1,1,1,1,-0,-0,-0,-0,0.576776811038144,1
1A_027,9,1,1,1,86,1,1,1,1,1,1,1,-0,-0,-0,-0,0.603404866968049,1
1A_027,9,1,1,1,87,0,1,1,1,1,1,1,-0,-0,-0,-0,1.01644223474432,1
1A_027,9,1,1,1,88,0,1,1,0,1,1,1,-1,-0,-0,-0,0.677549776301021,1
1A_027,9,1,1,1,89,1,1,1,0,0,1,1,-1,-1,-0,-0,0.702523503394332,1
1A_027,9,1,1,1,90,1,1,1,1,0,0,1,-0,-1,-1,-0,0.661205965327099,1
1A_027,9,1,1,1,91,0,1,0,1,1,0,0,-0,-0,-1,-1,0.655296432232717,0
1A_027,9,1,1,1,92,0,1,0,0,1,1,0,-1,-0,-0,-1,0.778581136983121,0
1A_027,9,1,1,1,93,0,1,0,0,0,1,1,-1,-1,-0,-0,0.500172980944626,0
1A_027,9,1,1,1,94,1,1,0,0,0,0,1,-1,-1,-1,-0,0.629396908392664,0
1A_027,9,1,1,1,95,0,1,0,1,0,0,0,-0,-1,-1,-1,0.679398260079324,0
1A_027,9,1,1,1,96,0,1,0,0,1,0,0,-1,-0,-1,-1,0.832784869824536,0
1A_027,9,1,1,1,97,0,1,0,0,0,1,0,-1,-1,-0,-1,0.795992791623576,0
1A_027,9,1,1,1,98,0,1,0,0,0,0,1,-1,-1,-1,-0,0.553330679045757,0
1A_027,9,1,1,1,99,0,1,0,0,0,0,0,-1,-1,-1,-1,0.611236659722636,0
1A_027,9,1,1,1,100,0,0,1,0,0,0,0,-1,-1,-1,-1,0.619060171826277,0
1A_027,9,1,1,1,101,1,0,1,-0,0,0,0,1,-1,-1,-1,0.51414831369766,0
1A_027,9,1,1,1,102,1,0,1,-1,-0,0,0,0,1,-1,-1,0.691218287916854,0
1A_027,9,1,1,1,103,1,0,1,-1,-1,-0,0,0,0,1,-1,0.588192537979921,0
1A_027,9,1,1,1,104,1,0,1,-1,-1,-1,-0,0,0,0,1,0.602860660350416,0
1A_027,9,1,1,1,105,1,0,1,-1,-1,-1,-1,0,0,0,0,0.560228902992094,0
1A_027,9,1,1,1,106,0,0,0,-1,-1,-1,-1,0,0,0,0,0.598117773333797,1
1A_027,9,1,1,1,107,0,0,0,-0,-1,-1,-1,1,0,0,0,0.801083249505609,1
1A_027,9,1,1,1,108,0,0,0,-0,-0,-1,-1,1,1,0,0,0.581043780897744,1
1A_027,9,1,1,1,109,0,0,0,-0,-0,-0,-1,1,1,1,0,0.58307969244197,1
1A_027,9,1,1,1,110,1,1,1,-0,-0,-0,-0,1,1,1,1,0.652586186741246,1
1A_027,9,1,1,1,111,1,1,1,1,-0,-0,-0,-0,1,1,1,0.606071059592068,1
1A_027,9,1,1,1,112,1,1,1,1,1,-0,-0,-0,-0,1,1,0.622358552500373,1
1A_027,9,1,1,1,113,1,1,1,1,1,1,-0,-0,-0,-0,1,0.613915335328784,1
1A_027,9,1,1,1,114,1,1,1,1,1,1,1,-0,-0,-0,-0,0.678522245318163,1
1A_027,9,1,1,1,115,1,1,1,1,1,1,1,-0,-0,-0,-0,0.742757169122342,1
1A_027,9,1,1,1,116,1,1,1,1,1,1,1,-0,-0,-0,-0,0.636722612893209,1
1A_027,9,1,1,1,117,1,1,1,1,1,1,1,-0,-0,-0,-0,0.691663251054706,1
1A_027,9,1,1,1,118,1,1,1,1,1,1,1,-0,-0,-0,-0,0.712513974343892,1
1A_027,9,1,1,1,119,1,1,1,1,1,1,1,-0,-0,-0,-0,0.77833332051523,1
1A_027,9,1,1,1,120,1,1,1,1,1,1,1,-0,-0,-0,-0,0.567947492672829,1
1A_027,9,1,1,1,121,1,1,1,1,1,1,1,-0,-0,-0,-0,0.752830295445165,1
1A_027,9,1,1,1,122,0,1,1,1,1,1,1,-0,-0,-0,-0,0.674474619328976,1
1A_027,9,1,1,1,123,1,1,1,0,1,1,1,-1,-0,-0,-0,0.742032952606678,1
1A_027,9,1,1,1,124,1,1,1,1,0,1,1,-0,-1,-0,-0,0.633910935546737,1
1A_027,9,1,1,1,125,1,1,1,1,1,0,1,-0,-0,-1,-0,0.580208395957015,1
1A_027,9,1,1,1,126,1,1,0,1,1,1,0,-0,-0,-0,-1,0.515356451331172,0
1A_027,9,1,1,1,127,1,1,0,1,1,1,1,-0,-0,-0,-0,0.691950494365301,0
1A_027,9,1,1,1,128,0,1,0,1,1,1,1,-0,-0,-0,-0,0.7619248527335,0
1A_027,9,1,1,1,129,0,1,0,0,1,1,1,-1,-0,-0,-0,0.559894667210756,0
1A_027,9,1,1,1,130,1,1,0,0,0,1,1,-1,-1,-0,-0,0.602692100947024,0
1A_027,9,1,1,1,131,0,1,0,1,0,0,1,-0,-1,-1,-0,0.527568051154958,0
1A_027,9,1,1,1,132,0,1,0,0,1,0,0,-1,-0,-1,-1,0.632247142813867,0
1A_027,9,1,1,1,133,0,1,0,0,0,1,0,-1,-1,-0,-1,0.791494959266856,0
1A_027,9,1,1,1,134,1,0,1,0,0,0,1,-1,-1,-1,-0,0.670484779955586,0
1A_027,9,1,1,1,135,0,0,1,-1,0,0,0,0,-1,-1,-1,0.822529175027739,0
1A_027,9,1,1,1,136,0,0,1,-0,-1,0,0,1,0,-1,-1,0.578337038663449,0
1A_027,9,1,1,1,137,1,0,1,-0,-0,-1,0,1,1,0,-1,0.54173071947298,0
1A_027,9,1,1,1,138,0,0,1,-1,-0,-0,-1,0,1,1,0,0.633376657991903,0
1A_027,9,1,1,1,139,1,0,1,-0,-1,-0,-0,1,0,1,1,0.620494535920443,0
1A_027,9,1,1,1,140,1,0,1,-1,-0,-1,-0,0,1,0,1,0.720852156140609,0
1A_027,9,1,1,1,141,1,0,1,-1,-1,-0,-1,0,0,1,0,0.547346548031783,0
1A_027,9,1,1,1,142,1,0,1,-1,-1,-1,-0,0,0,0,1,0.596970151673304,0
1A_027,9,1,1,1,143,1,0,1,-1,-1,-1,-1,0,0,0,0,0.529498521354981,0
1A_027,9,1,1,1,144,0,0,1,-1,-1,-1,-1,0,0,0,0,0.61832349706674,0
1A_027,9,1,1,1,145,1,0,1,-0,-1,-1,-1,1,0,0,0,0.689980431925505,0
1A_027,9,1,1,1,146,0,0,1,-1,-0,-1,-1,0,1,0,0,0.686550821526907,0
1A_027,9,1,1,1,147,1,0,1,-0,-1,-0,-1,1,0,1,0,0.481281297717942,0
1A_027,9,1,1,1,148,1,0,1,-1,-0,-1,-0,0,1,0,1,0.609334857639624,0
1A_027,9,1,1,1,149,1,0,1,-1,-1,-0,-1,0,0,1,0,0.742785195645411,0
1A_027,9,1,1,1,150,1,0,1,-1,-1,-1,-0,0,0,0,1,0.778522152104415,0
1A_027,9,1,1,1,151,1,0,1,-1,-1,-1,-1,0,0,0,0,0.618436825781828,0
1A_027,9,1,1,1,152,1,0,1,-1,-1,-1,-1,0,0,0,0,0.715428867581068,0
1A_027,9,1,1,1,153,0,0,1,-1,-1,-1,-1,0,0,0,0,0.658639392437181,0
1A_027,9,1,1,1,154,0,0,1,-0,-1,-1,-1,1,0,0,0,0.623702326382045,0
1A_027,9,1,1,1,155,0,0,1,-0,-0,-1,-1,1,1,0,0,0.694340157293482,0
1A_027,9,1,1,1,156,0,1,0,-0,-0,-0,-1,1,1,1,0,0.660192843730329,0
1A_027,9,1,1,1,157,1,0,1,0,-0,-0,-0,-1,1,1,1,0.693663041543914,0
1A_027,9,1,1,1,158,1,0,1,-1,0,-0,-0,0,-1,1,1,0.638420072966255,0
1A_027,9,1,1,1,159,0,0,1,-1,-1,0,-0,0,0,-1,1,0.685362855409039,0
1A_027,9,1,1,1,160,1,0,1,-0,-1,-1,0,1,0,0,-1,1.16622536932118,0
1A_028,10,1,1,1,1,1,0,1,NaN,NaN,NaN,NaN,NaN,NaN,NaN,NaN,0.845546528529667,0
1A_028,10,1,1,1,2,1,0,1,-1,NaN,NaN,NaN,0,NaN,NaN,NaN,0.56528494025406,0
1A_028,10,1,1,1,3,0,0,1,-1,-1,NaN,NaN,0,0,NaN,NaN,0.518678372893191,0
1A_028,10,1,1,1,4,0,0,1,-0,-1,-1,NaN,1,0,0,NaN,0.498147439753666,0
1A_028,10,1,1,1,5,0,1,0,-0,-0,-1,-1,1,1,0,0,0.992636899030913,0
1A_028,10,1,1,1,6,1,1,0,0,-0,-0,-1,-1,1,1,0,0.749850743144634,0
1A_028,10,1,1,1,7,0,1,0,1,0,-0,-0,-0,-1,1,1,0.480401592551061,0
1A_028,10,1,1,1,8,1,0,1,0,1,0,-0,-1,-0,-1,1,0.811572306429298,0
1A_028,10,1,1,1,9,1,0,1,-1,0,1,0,0,-1,-0,-1,0.642641808677581,0
1A_028,10,1,1,1,10,1,1,0,-1,-1,0,1,0,0,-1,-0,0.56751770586925,0
1A_028,10,1,1,1,11,1,1,0,1,-1,-1,0,-0,0,0,-1,0.612503390941129,0
1A_028,10,1,1,1,12,0,1,0,1,1,-1,-1,-0,-0,0,0,0.609902324336872,0
1A_028,10,1,1,1,13,1,0,1,0,1,1,-1,-1,-0,-0,0,0.516462340779981,0
1A_028,10,1,1,1,14,1,0,1,-1,0,1,1,0,-1,-0,-0,0.518364083360211,0
1A_028,10,1,1,1,15,0,1,0,-1,-1,0,1,0,0,-1,-0,0.452722162073769,0
1A_028,10,1,1,1,16,1,0,1,0,-1,-1,0,-1,0,0,-1,0.487949777460017,0
1A_028,10,1,1,1,17,1,0,1,-1,0,-1,-1,0,-1,0,0,0.57223101868658,0
1A_028,10,1,1,1,18,0,0,1,-1,-1,0,-1,0,0,-1,0,0.797731798251334,0
1A_028,10,1,1,1,19,1,1,0,-0,-1,-1,0,1,0,0,-1,0.696819429405878,0
1A_028,10,1,1,1,20,1,0,1,1,-0,-1,-1,-0,1,0,0,0.69839652518931,0
1A_028,10,1,1,1,21,0,1,0,-1,1,-0,-1,0,-0,1,0,0.759373534088809,0
1A_028,10,1,1,1,22,0,1,0,0,-1,1,-0,-1,0,-0,1,0.389424387838517,0
1A_028,10,1,1,1,23,0,1,0,0,0,-1,1,-1,-1,0,-0,0.653127375793702,0
1A_028,10,1,1,1,24,1,0,1,0,0,0,-1,-1,-1,-1,0,0.455985434462491,0
1A_028,10,1,1,1,25,1,0,1,-1,0,0,0,0,-1,-1,-1,0.571566116323083,0
1A_028,10,1,1,1,26,1,0,1,-1,-1,0,0,0,0,-1,-1,0.802519469838444,0
1A_028,10,1,1,1,27,0,1,0,-1,-1,-1,0,0,0,0,-1,0.595736615006899,0
1A_028,10,1,1,1,28,0,0,1,0,-1,-1,-1,-1,0,0,0,0.720401880585996,0
1A_028,10,1,1,1,29,1,0,1,-0,0,-1,-1,1,-1,0,0,0.847518637809117,0
1A_028,10,1,1,1,30,0,1,0,-1,-0,0,-1,0,1,-1,0,0.41079664380959,0
1A_028,10,1,1,1,31,1,0,1,0,-1,-0,0,-1,0,1,-1,0.609858241441543,0
1A_028,10,1,1,1,32,1,0,1,-1,0,-1,-0,0,-1,0,1,0.413262084486632,0
1A_028,10,1,1,1,33,1,0,1,-1,-1,0,-1,0,0,-1,0,0.412753202814201,0
1A_028,10,1,1,1,34,1,1,0,-1,-1,-1,0,0,0,0,-1,0.408116965394584,0
1A_028,10,1,1,1,35,1,0,1,1,-1,-1,-1,-0,0,0,0,0.467830809509906,0
1A_028,10,1,1,1,36,1,1,0,-1,1,-1,-1,0,-0,0,0,0.485887352806458,0
1A_028,10,1,1,1,37,1,1,0,1,-1,1,-1,-0,0,-0,0,0.424882107341546,0
1A_028,10,1,1,1,38,1,1,0,1,1,-1,1,-0,-0,0,-0,0.390636595624528,0
1A_028,10,1,1,1,39,1,0,1,1,1,1,-1,-0,-0,-0,0,0.45307075263554,0
1A_028,10,1,1,1,40,1,0,1,-1,1,1,1,0,-0,-0,-0,0.627491446462955,0
1A_028,10,1,1,1,41,0,1,0,-1,-1,1,1,0,0,-0,-0,0.459180961544916,0
1A_028,10,1,1,1,42,0,1,0,0,-1,-1,1,-1,0,0,-0,0.366365569658228,0
1A_028,10,1,1,1,43,1,0,1,0,0,-1,-1,-1,-1,0,0,0.61001880087133,0
1A_028,10,1,1,1,44,1,0,1,-1,0,0,-1,0,-1,-1,0,0.507502037304221,0
1A_028,10,1,1,1,45,0,1,0,-1,-1,0,0,0,0,-1,-1,0.399361898031202,0
1A_028,10,1,1,1,46,1,0,1,0,-1,-1,0,-1,0,0,-1,0.581922954675974,0
1A_028,10,1,1,1,47,1,0,1,-1,0,-1,-1,0,-1,0,0,0.35461734398632,0
1A_028,10,1,1,1,48,0,1,0,-1,-1,0,-1,0,0,-1,0,0.390190251884633,0
1A_028,10,1,1,1,49,0,1,0,0,-1,-1,0,-1,0,0,-1,0.733690868386475,0
1A_028,10,1,1,1,50,0,1,0,0,0,-1,-1,-1,-1,0,0,0.463932347262016,0
1A_028,10,1,1,1,51,1,0,1,0,0,0,-1,-1,-1,-1,0,0.966061427548993,0
1A_028,10,1,1,1,52,1,0,1,-1,0,0,0,0,-1,-1,-1,0.390732542404294,0
1A_028,10,1,1,1,53,1,0,1,-1,-1,0,0,0,0,-1,-1,0.400939682825992,0
1A_028,10,1,1,1,54,0,1,0,-1,-1,-1,0,0,0,0,-1,0.385850177099201,0
1A_028,10,1,1,1,55,1,0,1,0,-1,-1,-1,-1,0,0,0,0.661627358422265,0
1A_028,10,1,1,1,56,0,1,1,-1,0,-1,-1,0,-1,0,0,0.408109181404143,1
1A_028,10,1,1,1,57,0,0,0,0,-1,0,-1,-1,0,-1,0,1.07129898218045,1
1A_028,10,1,1,1,58,0,0,0,-0,0,-1,0,1,-1,0,-1,0.976104174184002,1
1A_028,10,1,1,1,59,1,1,1,-0,-0,0,-1,1,1,-1,0,0.679822003017762,1
1A_028,10,1,1,1,60,1,1,1,1,-0,-0,0,-0,1,1,-1,0.969363216248894,1
1A_028,10,1,1,1,61,1,1,1,1,1,-0,-0,-0,-0,1,1,1.04717117266046,1
1A_028,10,1,1,1,62,0,1,1,1,1,1,-0,-0,-0,-0,1,0.637990715011256,1
1A_028,10,1,1,1,63,1,1,1,0,1,1,1,-1,-0,-0,-0,1.28772892858251,1
1A_028,10,1,1,1,64,0,0,0,1,0,1,1,-0,-1,-0,-0,1.01356325701272,1
1A_028,10,1,1,1,65,1,1,1,-0,1,0,1,1,-0,-1,-0,0.881005102448398,1
1A_028,10,1,1,1,66,1,1,1,1,-0,1,0,-0,1,-0,-1,0.730038243313174,1
1A_028,10,1,1,1,67,1,1,1,1,1,-0,1,-0,-0,1,-0,0.353804222304461,1
1A_028,10,1,1,1,68,0,0,0,1,1,1,-0,-0,-0,-0,1,0.635101700816449,1
1A_028,10,1,1,1,69,1,1,1,-0,1,1,1,1,-0,-0,-0,1.03355456313511,1
1A_028,10,1,1,1,70,0,0,0,1,-0,1,1,-0,1,-0,-0,0.438286333654105,1
1A_028,10,1,1,1,71,0,1,0,-0,1,-0,1,1,-0,1,-0,0.631900386943016,0
1A_028,10,1,1,1,72,0,1,0,0,-0,1,-0,-1,1,-0,1,0.672874218093057,0
1A_028,10,1,1,1,73,1,0,1,0,0,-0,1,-1,-1,1,-0,0.750561976223253,0
1A_028,10,1,1,1,74,1,0,1,-1,0,0,-0,0,-1,-1,1,0.658113206223788,0
1A_028,10,1,1,1,75,0,0,1,-1,-1,0,0,0,0,-1,-1,0.665544561397837,0
1A_028,10,1,1,1,76,1,0,1,-0,-1,-1,0,1,0,0,-1,0.942837979670003,0
1A_028,10,1,1,1,77,0,0,1,-1,-0,-1,-1,0,1,0,0,0.793430437934148,0
1A_028,10,1,1,1,78,0,0,1,-0,-1,-0,-1,1,0,1,0,0.901164879640419,0
1A_028,10,1,1,1,79,1,1,0,-0,-0,-1,-0,1,1,0,1,0.888286554192746,0
1A_028,10,1,1,1,80,0,1,0,1,-0,-0,-1,-0,1,1,0,0.683181187094306,0
1A_028,10,1,1,1,81,0,1,0,0,1,-0,-0,-1,-0,1,1,1.44046774128947,0
1A_028,10,1,1,1,82,0,1,0,0,0,1,-0,-1,-1,-0,1,0.630486893020134,0
1A_028,10,1,1,1,83,0,1,0,0,0,0,1,-1,-1,-1,-0,0.980980622720381,0
1A_028,10,1,1,1,84,0,0,0,0,0,0,0,-1,-1,-1,-1,0,0
1A_028,10,1,1,1,85,0,1,0,NaN,0,0,0,NaN,-1,-1,-1,0.533622774568357,0
1A_028,10,1,1,1,86,0,0,1,0,NaN,0,0,-1,NaN,-1,-1,0.546468054722936,0
1A_028,10,1,1,1,87,0,1,0,-0,0,NaN,0,1,-1,NaN,-1,0.543114058302308,0
1A_028,10,1,1,1,88,1,0,1,0,-0,0,NaN,-1,1,-1,NaN,0.725649509804498,0
1A_028,10,1,1,1,89,0,0,1,-1,0,-0,0,0,-1,1,-1,0.491454037852236,0
1A_028,10,1,1,1,90,0,1,0,-0,-1,0,-0,1,0,-1,1,0.759643866033002,0
1A_028,10,1,1,1,91,0,0,0,0,-0,-1,0,-1,1,0,-1,0.679802435275633,1
1A_028,10,1,1,1,92,1,1,1,-0,0,-0,-1,1,-1,1,0,0.508151685113262,1
1A_028,10,1,1,1,93,0,0,0,1,-0,0,-0,-0,1,-1,1,0.380951631981588,1
1A_028,10,1,1,1,94,1,1,1,-0,1,-0,0,1,-0,1,-1,0.597177773768635,1
1A_028,10,1,1,1,95,1,1,1,1,-0,1,-0,-0,1,-0,1,0.638455411204632,1
1A_028,10,1,1,1,96,0,1,1,1,1,-0,1,-0,-0,1,-0,0.534323409119679,1
1A_028,10,1,1,1,97,1,1,1,0,1,1,-0,-1,-0,-0,1,0.939697634563345,1
1A_028,10,1,1,1,98,1,1,1,1,0,1,1,-0,-1,-0,-0,0.554114489354106,1
1A_028,10,1,1,1,99,1,1,1,1,1,0,1,-0,-0,-1,-0,0.571845064288937,1
1A_028,10,1,1,1,100,1,1,1,1,1,1,0,-0,-0,-0,-1,0.810550593450898,1
1A_028,10,1,1,1,101,0,1,1,1,1,1,1,-0,-0,-0,-0,0.624632778981322,1
1A_028,10,1,1,1,102,0,0,0,0,1,1,1,-1,-0,-0,-0,0.908948897642404,1
1A_028,10,1,1,1,103,0,0,0,-0,0,1,1,1,-1,-0,-0,1.10171939532302,1
1A_028,10,1,1,1,104,0,0,0,-0,-0,0,1,1,1,-1,-0,0.542304472914111,1
1A_028,10,1,1,1,105,1,1,1,-0,-0,-0,0,1,1,1,-1,0.69784029532093,1
1A_028,10,1,1,1,106,1,0,1,1,-0,-0,-0,-0,1,1,1,0.837993617093161,0
1A_028,10,1,1,1,107,1,0,1,-1,1,-0,-0,0,-0,1,1,0.723428395285737,0
1A_028,10,1,1,1,108,1,0,1,-1,-1,1,-0,0,0,-0,1,0.697648903322261,0
1A_028,10,1,1,1,109,0,0,1,-1,-1,-1,1,0,0,0,-0,0.405797500905464,0
1A_028,10,1,1,1,110,0,1,0,-0,-1,-1,-1,1,0,0,0,0.866610131390189,0
1A_028,10,1,1,1,111,0,1,0,0,-0,-1,-1,-1,1,0,0,0.368012142294901,0
