sub_idx,Cond,Order,Group,Trial_idx,Outcome,Choice_t,Correct,winstay_t1,winstay_t2,winstay_t3,winstay_t4,loseshift_t1,loseshift_t2,loseshift_t3,loseshift_t4,RT
1,2,1,1,1,1,0,1,NaN,NaN,NaN,NaN,NaN,NaN,NaN,NaN,0.745739508
1,2,1,1,2,1,0,1,-1,NaN,NaN,NaN,0,NaN,NaN,NaN,0.629755926
1,2,1,1,3,1,0,1,-1,-1,NaN,NaN,0,0,NaN,NaN,0.689797074
1,2,1,1,4,1,0,1,-1,-1,-1,NaN,0,0,0,NaN,0.612831001
1,2,1,1,5,1,1,0,-1,-1,-1,-1,0,0,0,0,0.398312451
1,2,1,1,6,1,0,1,1,-1,-1,-1,0,0,0,0,0.620190153
1,2,1,1,7,1,0,1,-1,1,-1,-1,0,0,0,0,0.377814247
1,2,1,1,8,1,1,0,-1,-1,1,-1,0,0,0,0,0.364668183
1,2,1,1,9,1,0,1,1,-1,-1,1,0,0,0,0,0.437846007
1,2,1,1,10,1,1,0,-1,1,-1,-1,0,0,0,0,0.549476361
1,2,1,1,11,1,0,1,1,-1,1,-1,0,0,0,0,0.774538629
1,2,1,1,12,1,0,1,-1,1,-1,1,0,0,0,0,0.615034242
1,2,1,1,13,1,0,1,-1,-1,1,-1,0,0,0,0,0.432916456
1,2,1,1,14,1,0,1,-1,-1,-1,1,0,0,0,0,0.534058208
1,2,1,1,15,1,0,1,-1,-1,-1,-1,0,0,0,0,0.546556197
1,2,1,1,16,1,0,1,-1,-1,-1,-1,0,0,0,0,0.53701738
1,2,1,1,17,0,1,0,-1,-1,-1,-1,0,0,0,0,0.432106977
1,2,1,1,18,1,0,1,0,-1,-1,-1,-1,0,0,0,0.521734331
1,2,1,1,19,1,0,1,-1,0,-1,-1,0,-1,0,0,0.455859889
1,2,1,1,20,0,0,1,-1,-1,0,-1,0,0,-1,0,0.663905251
1,2,1,1,21,0,1,0,0,-1,-1,0,1,0,0,-1,0.399332212
1,2,1,1,22,1,1,0,0,0,-1,-1,-1,1,0,0,0.379857377
1,2,1,1,23,1,0,1,1,0,0,-1,0,-1,1,0,0.475111074
1,2,1,1,24,1,0,1,-1,1,0,0,0,0,-1,1,0.42486195
1,2,1,1,25,0,1,0,-1,-1,1,0,0,0,0,-1,0.532026794
1,2,1,1,26,0,1,0,0,-1,-1,1,-1,0,0,0,0.359411571
1,2,1,1,27,0,1,0,0,0,-1,-1,-1,-1,0,0,0.396409878
1,2,1,1,28,1,0,1,0,0,0,-1,-1,-1,-1,0,0.540850875
1,2,1,1,29,1,0,1,-1,0,0,0,0,-1,-1,-1,0.51618244
1,2,1,1,30,0,1,0,-1,-1,0,0,0,0,-1,-1,0.64311598
1,2,1,1,31,0,1,0,0,-1,-1,0,-1,0,0,-1,0.420819718
1,2,1,1,32,1,1,0,0,0,-1,-1,-1,-1,0,0,0.523426896
1,2,1,1,33,1,0,1,1,0,0,-1,0,-1,-1,0,0.549558766
1,2,1,1,34,0,0,1,-1,1,0,0,0,0,-1,-1,0.624097527
1,2,1,1,35,0,1,0,0,-1,1,0,1,0,0,-1,0.439596604
1,2,1,1,36,1,0,1,0,0,-1,1,-1,1,0,0,0.447788966
1,2,1,1,37,1,0,1,-1,0,0,-1,0,-1,1,0,0.484003763
1,2,1,1,38,1,0,1,-1,-1,0,0,0,0,-1,1,0.523951508
1,2,1,1,39,1,0,1,-1,-1,-1,0,0,0,0,-1,0.495288531
1,2,1,1,40,1,0,1,-1,-1,-1,-1,0,0,0,0,0.736315094
1,2,1,1,41,1,0,1,-1,-1,-1,-1,0,0,0,0,0.512567125
1,2,1,1,42,1,0,1,-1,-1,-1,-1,0,0,0,0,0.569001175
1,2,1,1,43,1,0,1,-1,-1,-1,-1,0,0,0,0,0.573017533
1,2,1,1,44,0,0,1,-1,-1,-1,-1,0,0,0,0,0.52002192
1,2,1,1,45,1,0,1,0,-1,-1,-1,1,0,0,0,0.409533099
1,2,1,1,46,1,0,1,-1,0,-1,-1,0,1,0,0,0.793217291
1,2,1,1,47,1,0,1,-1,-1,0,-1,0,0,1,0,0.649881576
1,2,1,1,48,1,0,1,-1,-1,-1,0,0,0,0,1,0.652197841
1,2,1,1,49,1,0,1,-1,-1,-1,-1,0,0,0,0,0.753171799
1,2,1,1,50,1,0,1,-1,-1,-1,-1,0,0,0,0,0.394047347
1,2,1,1,51,0,0,1,-1,-1,-1,-1,0,0,0,0,0.415674896
1,2,1,1,52,0,1,0,0,-1,-1,-1,1,0,0,0,0.3548345
1,2,1,1,53,1,1,0,0,0,-1,-1,-1,1,0,0,0.362112202
1,2,1,1,54,0,0,1,1,0,0,-1,0,-1,1,0,0.644934279
1,2,1,1,55,1,0,1,0,1,0,0,1,0,-1,1,0.570937503
1,2,1,1,56,0,0,0,-1,0,1,0,0,1,0,-1,0.480850572
1,2,1,1,57,1,1,1,0,-1,0,1,1,0,1,0,0.651240628
1,2,1,1,58,1,0,0,1,0,-1,0,0,1,0,1,0.889964618
1,2,1,1,59,0,0,0,-1,1,0,-1,0,0,1,0,0.433423121
1,2,1,1,60,0,0,0,0,-1,1,0,1,0,0,1,0.450260158
1,2,1,1,61,1,1,1,0,0,-1,1,1,1,0,0,0.541494597
1,2,1,1,62,0,0,0,1,0,0,-1,0,1,1,0,0.638066953
1,2,1,1,63,1,0,0,0,1,0,0,1,0,1,1,0.416004079
1,2,1,1,64,1,1,1,-1,0,1,0,0,1,0,1,0.598260502
1,2,1,1,65,1,1,1,1,-1,0,1,0,0,1,0,0.696893948
1,2,1,1,66,0,0,0,1,1,-1,0,0,0,0,1,0.46270498
1,2,1,1,67,0,0,0,0,1,1,-1,1,0,0,0,0.349611463
1,2,1,1,68,0,0,0,0,0,1,1,1,1,0,0,0.378133046
1,2,1,1,69,1,1,1,0,0,0,1,1,1,1,0,0.351980435
1,2,1,1,70,1,1,1,1,0,0,0,0,1,1,1,0.694119975
1,2,1,1,71,0,1,0,1,1,0,0,0,0,1,1,0.483478176
1,2,1,1,72,1,1,0,0,1,1,0,-1,0,0,1,0.70346013
1,2,1,1,73,0,1,0,1,0,1,1,0,-1,0,0,0.690199863
1,2,1,1,74,1,0,1,0,1,0,1,-1,0,-1,0,0.735042983
1,2,1,1,75,0,1,0,-1,0,1,0,0,-1,0,-1,0.614490886
1,2,1,1,76,0,1,0,0,-1,0,1,-1,0,-1,0,0.453063897
1,2,1,1,77,1,0,1,0,0,-1,0,-1,-1,0,-1,0.505496677
1,2,1,1,78,0,1,0,-1,0,0,-1,0,-1,-1,0,1.056939873
1,2,1,1,79,1,1,0,0,-1,0,0,-1,0,-1,-1,0.665688834
1,2,1,1,80,0,1,0,1,0,-1,0,0,-1,0,-1,0.709307914
1,2,1,1,81,1,0,1,0,1,0,-1,-1,0,-1,0,0.48068496
1,2,1,1,82,1,0,1,-1,0,1,0,0,-1,0,-1,0.578224665
1,2,1,1,83,0,0,1,-1,-1,0,1,0,0,-1,0,0.696870576
1,2,1,1,84,1,0,1,0,-1,-1,0,1,0,0,-1,0.513032402
1,2,1,1,85,1,0,1,-1,0,-1,-1,0,1,0,0,0.746625052
1,2,1,1,86,1,0,1,-1,-1,0,-1,0,0,1,0,0.68943655
1,2,1,1,87,0,0,1,-1,-1,-1,0,0,0,0,1,0.561740091
1,2,1,1,88,1,0,1,0,-1,-1,-1,1,0,0,0,0.423761787
1,2,1,1,89,1,0,1,-1,0,-1,-1,0,1,0,0,0.615286603
1,2,1,1,90,0,0,1,-1,-1,0,-1,0,0,1,0,0.846351668
1,2,1,1,91,1,0,0,0,-1,-1,0,1,0,0,1,0.364207703
1,2,1,1,92,0,0,0,-1,0,-1,-1,0,1,0,0,0.623713981
1,2,1,1,93,0,0,0,0,-1,0,-1,1,0,1,0,0.432379739
1,2,1,1,94,0,0,0,0,0,-1,0,1,1,0,1,0.681765849
1,2,1,1,95,0,0,0,0,0,0,-1,1,1,1,0,0.902901759
1,2,1,1,96,0,0,0,0,0,0,0,1,1,1,1,0.539739366
1,2,1,1,97,1,1,1,0,0,0,0,1,1,1,1,0.578715502
1,2,1,1,98,1,1,1,1,0,0,0,0,1,1,1,0.6591346
1,2,1,1,99,0,0,0,1,1,0,0,0,0,1,1,0.813201817
1,2,1,1,100,1,1,1,0,1,1,0,1,0,0,1,0.57599387
1,2,1,1,101,0,0,0,1,0,1,1,0,1,0,0,0.42926003
1,2,1,1,102,0,0,0,0,1,0,1,1,0,1,0,0.633570274
1,2,1,1,103,0,0,0,0,0,1,0,1,1,0,1,0.585053895
1,2,1,1,104,0,0,0,0,0,0,1,1,1,1,0,0.541271058
1,2,1,1,105,1,1,1,0,0,0,0,1,1,1,1,0.575676304
1,2,1,1,106,0,1,0,1,0,0,0,0,1,1,1,0.687159734
1,2,1,1,107,0,1,0,0,1,0,0,-1,0,1,1,0.710313659
1,2,1,1,108,1,0,1,0,0,1,0,-1,-1,0,1,0.561737076
1,2,1,1,109,1,0,1,-1,0,0,1,0,-1,-1,0,0.732927944
1,2,1,1,110,1,0,1,-1,-1,0,0,0,0,-1,-1,0.588409605
1,2,1,1,111,1,0,1,-1,-1,-1,0,0,0,0,-1,0.449631897
1,2,1,1,112,0,0,1,-1,-1,-1,-1,0,0,0,0,0.455740501
1,2,1,1,113,1,0,1,0,-1,-1,-1,1,0,0,0,0.381117328
1,2,1,1,114,1,0,1,-1,0,-1,-1,0,1,0,0,0.775901011
1,2,1,1,115,1,1,0,-1,-1,0,-1,0,0,1,0,0.939278548
1,2,1,1,116,0,0,1,1,-1,-1,0,0,0,0,1,0.880129727
1,2,1,1,117,0,1,0,0,1,-1,-1,1,0,0,0,0.514291301
1,2,1,1,118,0,1,0,0,0,1,-1,-1,1,0,0,0.619958092
1,2,1,1,119,0,1,0,0,0,0,1,-1,-1,1,0,0.397717221
1,2,1,1,120,0,0,1,0,0,0,0,-1,-1,-1,1,0.553319836
1,2,1,1,121,0,1,0,0,0,0,0,1,-1,-1,-1,0.798537025
1,2,1,1,122,1,0,1,0,0,0,0,-1,1,-1,-1,0.396930357
1,2,1,1,123,1,0,1,-1,0,0,0,0,-1,1,-1,0.801517537
1,2,1,1,124,1,0,1,-1,-1,0,0,0,0,-1,1,0.664786493
1,2,1,1,125,1,0,1,-1,-1,-1,0,0,0,0,-1,0.698023798
1,2,1,1,126,1,1,1,-1,-1,-1,-1,0,0,0,0,0.992089206
1,2,1,1,127,1,1,1,1,-1,-1,-1,0,0,0,0,0.497480167
1,2,1,1,128,1,1,1,1,1,-1,-1,0,0,0,0,0.52292326
1,2,1,1,129,0,0,0,1,1,1,-1,0,0,0,0,0.682917399
1,2,1,1,130,1,1,1,0,1,1,1,1,0,0,0,0.632681782
1,2,1,1,131,0,0,0,1,0,1,1,0,1,0,0,0.641701119
1,2,1,1,132,1,1,1,0,1,0,1,1,0,1,0,0.677462837
1,2,1,1,133,1,1,1,1,0,1,0,0,1,0,1,0.670207598
1,2,1,1,134,0,0,0,1,1,0,1,0,0,1,0,0.613639372
1,2,1,1,135,0,1,1,0,1,1,0,1,0,0,1,0.365287056
1,2,1,1,136,0,0,0,0,0,1,1,-1,1,0,0,0.465192252
1,2,1,1,137,1,1,1,0,0,0,1,1,-1,1,0,0.625831303
1,2,1,1,138,1,1,1,1,0,0,0,0,1,-1,1,0.600165316
1,2,1,1,139,1,1,1,1,1,0,0,0,0,1,-1,0.631320327
1,2,1,1,140,0,0,0,1,1,1,0,0,0,0,1,0.756711741
1,2,1,1,141,1,1,1,0,1,1,1,1,0,0,0,0.568781538
1,2,1,1,142,1,1,1,1,0,1,1,0,1,0,0,0.709736638
1,2,1,1,143,0,0,0,1,1,0,1,0,0,1,0,0.609468685
1,2,1,1,144,1,1,1,0,1,1,0,1,0,0,1,0.607452055
1,2,1,1,145,1,1,1,1,0,1,1,0,1,0,0,0.547173391
1,2,1,1,146,0,0,0,1,1,0,1,0,0,1,0,1.004156135
1,2,1,1,147,1,1,1,0,1,1,0,1,0,0,1,0.984773305
1,2,1,1,148,1,1,1,1,0,1,1,0,1,0,0,0.690833347
1,2,1,1,149,0,0,0,1,1,0,1,0,0,1,0,0.648544516
1,2,1,1,150,1,1,1,0,1,1,0,1,0,0,1,0.474210549
1,2,1,1,151,0,0,0,1,0,1,1,0,1,0,0,0.494318072
1,2,1,1,152,1,1,1,0,1,0,1,1,0,1,0,0.481258329
1,2,1,1,153,0,0,0,1,0,1,0,0,1,0,1,0.601387446
1,2,1,1,154,0,0,0,0,1,0,1,1,0,1,0,0.76128768
1,2,1,1,155,1,1,1,0,0,1,0,1,1,0,1,0.649724488
1,2,1,1,156,1,1,1,1,0,0,1,0,1,1,0,0.833068437
1,2,1,1,157,0,0,0,1,1,0,0,0,0,1,1,0.727691625
1,2,1,1,158,1,1,1,0,1,1,0,1,0,0,1,0.470283302
1,2,1,1,159,0,1,1,1,0,1,1,0,1,0,0,0.73159052
1,2,1,1,160,0,0,0,0,1,0,1,-1,0,1,0,0.692542861
2,2,1,1,1,1,1,1,NaN,NaN,NaN,NaN,NaN,NaN,NaN,NaN,1.149464914
2,2,1,1,2,1,1,1,1,NaN,NaN,NaN,0,NaN,NaN,NaN,0.619409939
2,2,1,1,3,1,1,1,1,1,NaN,NaN,0,0,NaN,NaN,0.429614697
2,2,1,1,4,1,1,1,1,1,1,NaN,0,0,0,NaN,0.609888543
2,2,1,1,5,0,1,1,1,1,1,1,0,0,0,0,0.729507154
2,2,1,1,6,1,1,1,0,1,1,1,-1,0,0,0,1.220473286
2,2,1,1,7,1,1,1,1,0,1,1,0,-1,0,0,0.647473204
2,2,1,1,8,0,0,0,1,1,0,1,0,0,-1,0,1.142440596
2,2,1,1,9,1,1,1,0,1,1,0,1,0,0,-1,1.023050113
2,2,1,1,10,1,1,1,1,0,1,1,0,1,0,0,0.689060452
2,2,1,1,11,0,1,1,1,1,0,1,0,0,1,0,0.668073592
2,2,1,1,12,1,1,1,0,1,1,0,-1,0,0,1,0.847406059
2,2,1,1,13,1,1,1,1,0,1,1,0,-1,0,0,0.687892305
2,2,1,1,14,1,1,1,1,1,0,1,0,0,-1,0,0.797376681
2,2,1,1,15,0,0,0,1,1,1,0,0,0,0,-1,0.565674842
2,2,1,1,16,1,1,1,0,1,1,1,1,0,0,0,0.567290516
2,2,1,1,17,1,1,1,1,0,1,1,0,1,0,0,0.950782716
2,2,1,1,18,0,1,1,1,1,0,1,0,0,1,0,0.550170248
2,2,1,1,19,1,1,1,0,1,1,0,-1,0,0,1,1.402916774
2,2,1,1,20,1,1,1,1,0,1,1,0,-1,0,0,0.812535662
2,2,1,1,21,0,0,0,1,1,0,1,0,0,-1,0,0.528748205
2,2,1,1,22,1,1,1,0,1,1,0,1,0,0,-1,1.43113446
2,2,1,1,23,1,1,1,1,0,1,1,0,1,0,0,0.646282912
2,2,1,1,24,1,1,1,1,1,0,1,0,0,1,0,0.579663237
2,2,1,1,25,1,1,1,1,1,1,0,0,0,0,1,0.744975103
2,2,1,1,26,1,1,1,1,1,1,1,0,0,0,0,0.699514258
2,2,1,1,27,0,0,0,1,1,1,1,0,0,0,0,0.477417526
2,2,1,1,28,1,1,1,0,1,1,1,1,0,0,0,0.715242863
2,2,1,1,29,1,1,1,1,0,1,1,0,1,0,0,0.914183544
2,2,1,1,30,1,1,1,1,1,0,1,0,0,1,0,0.588850607
2,2,1,1,31,1,1,1,1,1,1,0,0,0,0,1,0.613021838
2,2,1,1,32,1,1,1,1,1,1,1,0,0,0,0,1.053420886
2,2,1,1,33,1,1,1,1,1,1,1,0,0,0,0,0.515830118
2,2,1,1,34,1,1,1,1,1,1,1,0,0,0,0,0.544260462
2,2,1,1,35,1,1,1,1,1,1,1,0,0,0,0,0.903971827
2,2,1,1,36,1,1,1,1,1,1,1,0,0,0,0,0.448532349
2,2,1,1,37,1,1,1,1,1,1,1,0,0,0,0,0.691243628
2,2,1,1,38,1,1,1,1,1,1,1,0,0,0,0,0.587162673
2,2,1,1,39,1,1,1,1,1,1,1,0,0,0,0,0.540802459
2,2,1,1,40,0,0,0,1,1,1,1,0,0,0,0,0.715991127
2,2,1,1,41,1,1,1,0,1,1,1,1,0,0,0,0.535655765
2,2,1,1,42,1,1,1,1,0,1,1,0,1,0,0,0.625366154
2,2,1,1,43,1,1,1,1,1,0,1,0,0,1,0,0.586298084
2,2,1,1,44,1,1,1,1,1,1,0,0,0,0,1,0.533094533
2,2,1,1,45,1,1,1,1,1,1,1,0,0,0,0,0.457751979
2,2,1,1,46,1,1,1,1,1,1,1,0,0,0,0,0.519182115
2,2,1,1,47,0,1,1,1,1,1,1,0,0,0,0,0.471741772
2,2,1,1,48,0,0,0,0,1,1,1,-1,0,0,0,0.552387798
2,2,1,1,49,1,1,1,0,0,1,1,1,-1,0,0,0.998654897
2,2,1,1,50,0,1,1,1,0,0,1,0,1,-1,0,0.551378807
2,2,1,1,51,1,1,1,0,1,0,0,-1,0,1,-1,0.623870863
2,2,1,1,52,0,0,0,1,0,1,0,0,-1,0,1,0.48081741
2,2,1,1,53,0,1,1,0,1,0,1,1,0,-1,0,0.67926714
2,2,1,1,54,1,0,0,0,0,1,0,-1,1,0,-1,0.606289531
2,2,1,1,55,0,0,0,-1,0,0,1,0,-1,1,0,0.505291087
2,2,1,1,56,0,0,1,0,-1,0,0,1,0,-1,1,0.706153835
2,2,1,1,57,0,1,0,0,0,-1,0,1,1,0,-1,0.587381949
2,2,1,1,58,1,0,1,0,0,0,-1,-1,1,1,0,0.560350843
2,2,1,1,59,0,1,0,-1,0,0,0,0,-1,1,1,0.953962686
2,2,1,1,60,1,0,1,0,-1,0,0,-1,0,-1,1,0.61643889
2,2,1,1,61,0,0,1,-1,0,-1,0,0,-1,0,-1,0.597103239
2,2,1,1,62,1,0,1,0,-1,0,-1,1,0,-1,0,0.635703233
2,2,1,1,63,1,0,1,-1,0,-1,0,0,1,0,-1,0.641585514
2,2,1,1,64,1,0,1,-1,-1,0,-1,0,0,1,0,0.595145998
2,2,1,1,65,0,0,1,-1,-1,-1,0,0,0,0,1,0.499846699
2,2,1,1,66,1,0,1,0,-1,-1,-1,1,0,0,0,0.600092776
2,2,1,1,67,1,0,1,-1,0,-1,-1,0,1,0,0,0.604361314
2,2,1,1,68,1,0,1,-1,-1,0,-1,0,0,1,0,0.505158799
2,2,1,1,69,1,0,1,-1,-1,-1,0,0,0,0,1,0.612319946
2,2,1,1,70,1,0,1,-1,-1,-1,-1,0,0,0,0,0.570442003
2,2,1,1,71,1,0,0,-1,-1,-1,-1,0,0,0,0,0.430397055
2,2,1,1,72,0,0,0,-1,-1,-1,-1,0,0,0,0,0.414335537
2,2,1,1,73,1,1,1,0,-1,-1,-1,1,0,0,0,1.238883263
2,2,1,1,74,1,1,1,1,0,-1,-1,0,1,0,0,0.597431102
2,2,1,1,75,1,1,1,1,1,0,-1,0,0,1,0,0.50679248
2,2,1,1,76,1,1,1,1,1,1,0,0,0,0,1,0.594350416
2,2,1,1,77,1,1,1,1,1,1,1,0,0,0,0,0.688100466
2,2,1,1,78,0,1,1,1,1,1,1,0,0,0,0,1.229815996
2,2,1,1,79,0,0,0,0,1,1,1,-1,0,0,0,0.793177054
2,2,1,1,80,1,0,0,0,0,1,1,1,-1,0,0,0.495991982
2,2,1,1,81,1,1,1,-1,0,0,1,0,1,-1,0,0.698020298
2,2,1,1,82,1,1,1,1,-1,0,0,0,0,1,-1,0.474410491
2,2,1,1,83,1,0,0,1,1,-1,0,0,0,0,1,1.111394355
2,2,1,1,84,0,1,1,-1,1,1,-1,0,0,0,0,1.138019214
2,2,1,1,85,0,1,1,0,-1,1,1,-1,0,0,0,0.433363705
2,2,1,1,86,1,1,1,0,0,-1,1,-1,-1,0,0,0.383673272
2,2,1,1,87,1,1,1,1,0,0,-1,0,-1,-1,0,0.602731312
2,2,1,1,88,0,1,1,1,1,0,0,0,0,-1,-1,0.566037924
2,2,1,1,89,0,0,0,0,1,1,0,-1,0,0,-1,0.56594663
2,2,1,1,90,0,0,0,0,0,1,1,1,-1,0,0,0.97893607
2,2,1,1,91,1,1,0,0,0,0,1,1,1,-1,0,0.463703312
2,2,1,1,92,0,1,0,1,0,0,0,0,1,1,-1,0.395809495
2,2,1,1,93,1,0,1,0,1,0,0,-1,0,1,1,0.655327955
2,2,1,1,94,1,1,0,-1,0,1,0,0,-1,0,1,0.285396178
2,2,1,1,95,1,1,0,1,-1,0,1,0,0,-1,0,0.47729733
2,2,1,1,96,0,1,0,1,1,-1,0,0,0,0,-1,0.444061549
2,2,1,1,97,1,0,1,0,1,1,-1,-1,0,0,0,0.849979955
2,2,1,1,98,0,1,0,-1,0,1,1,0,-1,0,0,0.717055348
2,2,1,1,99,1,0,1,0,-1,0,1,-1,0,-1,0,0.521244268
2,2,1,1,100,1,0,1,-1,0,-1,0,0,-1,0,-1,1.200575892
2,2,1,1,101,1,0,1,-1,-1,0,-1,0,0,-1,0,0.487383481
2,2,1,1,102,1,0,1,-1,-1,-1,0,0,0,0,-1,0.509635191
2,2,1,1,103,0,0,1,-1,-1,-1,-1,0,0,0,0,0.554335427
2,2,1,1,104,0,0,0,0,-1,-1,-1,1,0,0,0,0
2,2,1,1,105,1,0,1,NaN,0,-1,-1,NaN,1,0,0,0.702858434
2,2,1,1,106,0,0,0,-1,NaN,0,-1,0,NaN,1,0,0.544452225
2,2,1,1,107,1,1,1,0,-1,NaN,0,1,0,NaN,1,0.592789529
2,2,1,1,108,1,1,1,1,0,-1,NaN,0,1,0,NaN,0.478070174
2,2,1,1,109,0,0,0,1,1,0,-1,0,0,1,0,0.615964324
2,2,1,1,110,1,1,1,0,1,1,0,1,0,0,1,0.811268709
2,2,1,1,111,1,1,1,1,0,1,1,0,1,0,0,0.896192163
2,2,1,1,112,1,1,1,1,1,0,1,0,0,1,0,0.550696144
2,2,1,1,113,1,1,1,1,1,1,0,0,0,0,1,0.551256747
2,2,1,1,114,0,1,1,1,1,1,1,0,0,0,0,0.601328797
2,2,1,1,115,1,1,1,0,1,1,1,-1,0,0,0,0.788598276
2,2,1,1,116,1,1,1,1,0,1,1,0,-1,0,0,0.771616262
2,2,1,1,117,0,1,1,1,1,0,1,0,0,-1,0,0.560538862
2,2,1,1,118,1,0,0,0,1,1,0,-1,0,0,-1,0.569176068
2,2,1,1,119,1,1,1,-1,0,1,1,0,-1,0,0,0.986154004
2,2,1,1,120,0,0,0,1,-1,0,1,0,0,-1,0,0.729732053
2,2,1,1,121,1,1,1,0,1,-1,0,1,0,0,-1,0.866850134
2,2,1,1,122,1,1,1,1,0,1,-1,0,1,0,0,0.569066113
2,2,1,1,123,1,1,1,1,1,0,1,0,0,1,0,0.796272947
2,2,1,1,124,1,1,1,1,1,1,0,0,0,0,1,0.552039191
2,2,1,1,125,0,0,0,1,1,1,1,0,0,0,0,0.590891942
2,2,1,1,126,1,1,0,0,1,1,1,1,0,0,0,0.909473809
2,2,1,1,127,0,1,0,1,0,1,1,0,1,0,0,0.487297894
2,2,1,1,128,0,1,0,0,1,0,1,-1,0,1,0,0.77629392
2,2,1,1,129,0,0,1,0,0,1,0,-1,-1,0,1,0.558983789
2,2,1,1,130,0,1,0,0,0,0,1,1,-1,-1,0,1.029228504
2,2,1,1,131,0,1,0,0,0,0,0,-1,1,-1,-1,0.767390728
2,2,1,1,132,1,0,1,0,0,0,0,-1,-1,1,-1,0.801186135
2,2,1,1,133,1,0,1,-1,0,0,0,0,-1,-1,1,0.481882638
2,2,1,1,134,1,0,1,-1,-1,0,0,0,0,-1,-1,0.483177346
2,2,1,1,135,1,0,1,-1,-1,-1,0,0,0,0,-1,0.569933612
2,2,1,1,136,1,0,1,-1,-1,-1,-1,0,0,0,0,0.499423883
2,2,1,1,137,1,1,0,-1,-1,-1,-1,0,0,0,0,0.780323938
2,2,1,1,138,1,1,0,1,-1,-1,-1,0,0,0,0,0.536553699
2,2,1,1,139,1,0,1,1,1,-1,-1,0,0,0,0,0.6206182
2,2,1,1,140,0,0,1,-1,1,1,-1,0,0,0,0,0.520433339
2,2,1,1,141,1,0,1,0,-1,1,1,1,0,0,0,0.426830255
2,2,1,1,142,0,1,0,-1,0,-1,1,0,1,0,0,0.474634248
2,2,1,1,143,0,1,0,0,-1,0,-1,-1,0,1,0,0.425013441
2,2,1,1,144,1,0,1,0,0,-1,0,-1,-1,0,1,0.78131063
2,2,1,1,145,0,0,1,-1,0,0,-1,0,-1,-1,0,0.682347109
2,2,1,1,146,0,1,0,0,-1,0,0,1,0,-1,-1,0.61132843
2,2,1,1,147,1,1,0,0,0,-1,0,-1,1,0,-1,0.963817553
2,2,1,1,148,0,1,0,1,0,0,-1,0,-1,1,0,0.682855636
2,2,1,1,149,0,1,0,0,1,0,0,-1,0,-1,1,0.652124275
2,2,1,1,150,1,0,1,0,0,1,0,-1,-1,0,-1,0.526023261
2,2,1,1,151,1,0,1,-1,0,0,1,0,-1,-1,0,0.517244565
2,2,1,1,152,1,0,1,-1,-1,0,0,0,0,-1,-1,1.09149246
2,2,1,1,153,1,0,1,-1,-1,-1,0,0,0,0,-1,0.624441465
2,2,1,1,154,1,0,1,-1,-1,-1,-1,0,0,0,0,0.469371903
2,2,1,1,155,0,1,0,-1,-1,-1,-1,0,0,0,0,0.54854513
2,2,1,1,156,1,0,1,0,-1,-1,-1,-1,0,0,0,0.725379864
2,2,1,1,157,1,0,1,-1,0,-1,-1,0,-1,0,0,1.058356384
2,2,1,1,158,1,0,1,-1,-1,0,-1,0,0,-1,0,0.633945398
2,2,1,1,159,1,0,1,-1,-1,-1,0,0,0,0,-1,0.567629664
2,2,1,1,160,1,0,1,-1,-1,-1,-1,0,0,0,0,0.450704318
3,2,1,1,1,0,0,0,NaN,NaN,NaN,NaN,NaN,NaN,NaN,NaN,1.034647872
3,2,1,1,2,1,1,1,0,NaN,NaN,NaN,1,NaN,NaN,NaN,0.529611866
3,2,1,1,3,1,1,1,1,0,NaN,NaN,0,1,NaN,NaN,0.519896151
3,2,1,1,4,1,1,1,1,1,0,NaN,0,0,1,NaN,0.605247963
3,2,1,1,5,1,1,1,1,1,1,0,0,0,0,1,0.667598358
3,2,1,1,6,1,1,1,1,1,1,1,0,0,0,0,0.762505892
3,2,1,1,7,1,1,1,1,1,1,1,0,0,0,0,0.65800389
3,2,1,1,8,1,1,1,1,1,1,1,0,0,0,0,0.578288657
3,2,1,1,9,1,1,1,1,1,1,1,0,0,0,0,0.629632753
3,2,1,1,10,1,1,1,1,1,1,1,0,0,0,0,0.605133615
3,2,1,1,11,1,1,1,1,1,1,1,0,0,0,0,1.017574054
3,2,1,1,12,1,1,1,1,1,1,1,0,0,0,0,0.582460684
3,2,1,1,13,1,1,1,1,1,1,1,0,0,0,0,0.77890129
3,2,1,1,14,1,1,1,1,1,1,1,0,0,0,0,0.572640612
3,2,1,1,15,1,1,1,1,1,1,1,0,0,0,0,0.667671097
3,2,1,1,16,0,1,1,1,1,1,1,0,0,0,0,0.596195439
3,2,1,1,17,1,1,1,0,1,1,1,-1,0,0,0,0.629703992
3,2,1,1,18,1,1,1,1,0,1,1,0,-1,0,0,0.554554128
3,2,1,1,19,1,1,1,1,1,0,1,0,0,-1,0,0.600102399
3,2,1,1,20,1,1,1,1,1,1,0,0,0,0,-1,0.693320467
3,2,1,1,21,1,1,1,1,1,1,1,0,0,0,0,0.486621776
3,2,1,1,22,1,1,1,1,1,1,1,0,0,0,0,0.582588404
3,2,1,1,23,1,1,1,1,1,1,1,0,0,0,0,0.495638251
3,2,1,1,24,1,1,1,1,1,1,1,0,0,0,0,0.54068986
3,2,1,1,25,1,1,1,1,1,1,1,0,0,0,0,0.704682587
3,2,1,1,26,1,1,1,1,1,1,1,0,0,0,0,0.530816866
3,2,1,1,27,1,1,1,1,1,1,1,0,0,0,0,0.610142843
3,2,1,1,28,1,1,1,1,1,1,1,0,0,0,0,0.850277748
3,2,1,1,29,1,1,1,1,1,1,1,0,0,0,0,0.640468763
3,2,1,1,30,1,1,1,1,1,1,1,0,0,0,0,0.633061829
3,2,1,1,31,0,1,1,1,1,1,1,0,0,0,0,0.721500672
3,2,1,1,32,1,1,1,0,1,1,1,-1,0,0,0,0.62310399
3,2,1,1,33,1,1,1,1,0,1,1,0,-1,0,0,0.565873989
3,2,1,1,34,1,1,1,1,1,0,1,0,0,-1,0,0.581849303
3,2,1,1,35,1,1,1,1,1,1,0,0,0,0,-1,0.682839334
3,2,1,1,36,0,1,1,1,1,1,1,0,0,0,0,0.677866854
3,2,1,1,37,1,1,1,0,1,1,1,-1,0,0,0,0.627975848
3,2,1,1,38,1,1,1,1,0,1,1,0,-1,0,0,0.717644256
3,2,1,1,39,1,1,1,1,1,0,1,0,0,-1,0,0.615591441
3,2,1,1,40,1,1,1,1,1,1,0,0,0,0,-1,0.731767012
3,2,1,1,41,1,1,1,1,1,1,1,0,0,0,0,0.608032242
3,2,1,1,42,0,1,1,1,1,1,1,0,0,0,0,0.745948256
3,2,1,1,43,1,1,1,0,1,1,1,-1,0,0,0,0.605049722
3,2,1,1,44,1,1,1,1,0,1,1,0,-1,0,0,0.577925565
3,2,1,1,45,1,1,1,1,1,0,1,0,0,-1,0,0.752372144
3,2,1,1,46,0,1,1,1,1,1,0,0,0,0,-1,0.680622094
3,2,1,1,47,1,1,1,0,1,1,1,-1,0,0,0,0.639611468
3,2,1,1,48,1,1,1,1,0,1,1,0,-1,0,0,0.744882993
3,2,1,1,49,0,1,1,1,1,0,1,0,0,-1,0,0.678100755
3,2,1,1,50,1,1,1,0,1,1,0,-1,0,0,-1,0.519874112
3,2,1,1,51,1,1,1,1,0,1,1,0,-1,0,0,0.741270272
3,2,1,1,52,1,1,1,1,1,0,1,0,0,-1,0,0.649076793
3,2,1,1,53,1,1,1,1,1,1,0,0,0,0,-1,0.811495186
3,2,1,1,54,0,1,1,1,1,1,1,0,0,0,0,0.728721525
3,2,1,1,55,1,1,1,0,1,1,1,-1,0,0,0,0.620996917
3,2,1,1,56,1,1,0,1,0,1,1,0,-1,0,0,0.655890171
3,2,1,1,57,0,1,0,1,1,0,1,0,0,-1,0,0.608702835
3,2,1,1,58,0,1,0,0,1,1,0,-1,0,0,-1,0.558229422
3,2,1,1,59,1,0,1,0,0,1,1,-1,-1,0,0,1.390401088
3,2,1,1,60,1,0,1,-1,0,0,1,0,-1,-1,0,0.5716437
3,2,1,1,61,1,0,1,-1,-1,0,0,0,0,-1,-1,0.841638943
3,2,1,1,62,1,0,1,-1,-1,-1,0,0,0,0,-1,0.685307621
3,2,1,1,63,1,0,1,-1,-1,-1,-1,0,0,0,0,0.737326189
3,2,1,1,64,1,0,1,-1,-1,-1,-1,0,0,0,0,0.811419841
3,2,1,1,65,1,0,1,-1,-1,-1,-1,0,0,0,0,1.02855517
3,2,1,1,66,1,0,1,-1,-1,-1,-1,0,0,0,0,1.010625362
3,2,1,1,67,1,0,1,-1,-1,-1,-1,0,0,0,0,0.800394331
3,2,1,1,68,1,0,1,-1,-1,-1,-1,0,0,0,0,0.835870813
3,2,1,1,69,0,0,1,-1,-1,-1,-1,0,0,0,0,1.207429542
3,2,1,1,70,1,0,1,0,-1,-1,-1,1,0,0,0,0.614469205
3,2,1,1,71,0,0,0,-1,0,-1,-1,0,1,0,0,1.136300155
3,2,1,1,72,0,0,0,0,-1,0,-1,1,0,1,0,1.192860608
3,2,1,1,73,1,0,0,0,0,-1,0,1,1,0,1,0.494845742
3,2,1,1,74,0,0,0,-1,0,0,-1,0,1,1,0,0.665151692
3,2,1,1,75,1,1,1,0,-1,0,0,1,0,1,1,0.620397982
3,2,1,1,76,1,1,1,1,0,-1,0,0,1,0,1,0.602455142
3,2,1,1,77,0,0,0,1,1,0,-1,0,0,1,0,0.698987106
3,2,1,1,78,0,0,0,0,1,1,0,1,0,0,1,1.059995812
3,2,1,1,79,1,1,1,0,0,1,1,1,1,0,0,0.65338055
3,2,1,1,80,1,1,1,1,0,0,1,0,1,1,0,0.614414927
3,2,1,1,81,1,1,1,1,1,0,0,0,0,1,1,0.65053977
3,2,1,1,82,1,1,1,1,1,1,0,0,0,0,1,0.784140161
3,2,1,1,83,0,0,0,1,1,1,1,0,0,0,0,0.905527921
3,2,1,1,84,1,1,1,0,1,1,1,1,0,0,0,0.594328269
3,2,1,1,85,0,1,1,1,0,1,1,0,1,0,0,0.547358814
3,2,1,1,86,0,0,0,0,1,0,1,-1,0,1,0,1.046535026
3,2,1,1,87,0,0,0,0,0,1,0,1,-1,0,1,1.113157491
3,2,1,1,88,1,1,1,0,0,0,1,1,1,-1,0,1.076771031
3,2,1,1,89,1,1,1,1,0,0,0,0,1,1,-1,0.581568042
3,2,1,1,90,1,1,1,1,1,0,0,0,0,1,1,1.10059908
3,2,1,1,91,1,1,0,1,1,1,0,0,0,0,1,0.90061021
3,2,1,1,92,0,1,0,1,1,1,1,0,0,0,0,0.637744301
3,2,1,1,93,0,1,0,0,1,1,1,-1,0,0,0,0.814007313
3,2,1,1,94,1,1,0,0,0,1,1,-1,-1,0,0,1.176555215
3,2,1,1,95,0,1,0,1,0,0,1,0,-1,-1,0,0.720195938
3,2,1,1,96,1,0,1,0,1,0,0,-1,0,-1,-1,0.661652551
3,2,1,1,97,1,0,1,-1,0,1,0,0,-1,0,-1,0.704316104
3,2,1,1,98,1,0,1,-1,-1,0,1,0,0,-1,0,0.515939971
3,2,1,1,99,1,0,1,-1,-1,-1,0,0,0,0,-1,0.720571826
3,2,1,1,100,0,0,0,-1,-1,-1,-1,0,0,0,0,0
3,2,1,1,101,0,1,0,NaN,-1,-1,-1,NaN,0,0,0,1.026888399
3,2,1,1,102,1,0,1,0,NaN,-1,-1,-1,NaN,0,0,1.010555486
3,2,1,1,103,1,0,1,-1,0,NaN,-1,0,-1,NaN,0,0.59110009
3,2,1,1,104,1,0,1,-1,-1,0,NaN,0,0,-1,NaN,0.624899336
3,2,1,1,105,1,0,1,-1,-1,-1,0,0,0,0,-1,0.653313393
3,2,1,1,106,0,0,0,-1,-1,-1,-1,0,0,0,0,0.77833568
3,2,1,1,107,0,0,0,0,-1,-1,-1,1,0,0,0,0.856778615
3,2,1,1,108,0,1,1,0,0,-1,-1,1,1,0,0,1.041039286
3,2,1,1,109,0,0,0,0,0,0,-1,-1,1,1,0,0.692271641
3,2,1,1,110,1,1,1,0,0,0,0,1,-1,1,1,0.697569102
3,2,1,1,111,0,1,1,1,0,0,0,0,1,-1,1,0.555368543
3,2,1,1,112,1,1,1,0,1,0,0,-1,0,1,-1,0.815567047
3,2,1,1,113,1,1,1,1,0,1,0,0,-1,0,1,0.672411909
3,2,1,1,114,0,0,0,1,1,0,1,0,0,-1,0,1.002766515
3,2,1,1,115,1,1,1,0,1,1,0,1,0,0,-1,0.622846291
3,2,1,1,116,1,1,1,1,0,1,1,0,1,0,0,0.704609456
3,2,1,1,117,1,1,1,1,1,0,1,0,0,1,0,1.281140214
3,2,1,1,118,1,1,1,1,1,1,0,0,0,0,1,0.494806934
3,2,1,1,119,0,1,1,1,1,1,1,0,0,0,0,0.752236988
3,2,1,1,120,1,1,1,0,1,1,1,-1,0,0,0,0.878296278
3,2,1,1,121,1,1,1,1,0,1,1,0,-1,0,0,0.643508686
3,2,1,1,122,1,1,1,1,1,0,1,0,0,-1,0,0.809300486
3,2,1,1,123,1,1,1,1,1,1,0,0,0,0,-1,0.713290695
3,2,1,1,124,1,1,1,1,1,1,1,0,0,0,0,0.922698717
3,2,1,1,125,1,1,1,1,1,1,1,0,0,0,0,0.821373064
3,2,1,1,126,0,0,0,1,1,1,1,0,0,0,0,0
3,2,1,1,127,0,1,0,NaN,1,1,1,NaN,0,0,0,1.018895326
3,2,1,1,128,1,0,1,0,NaN,1,1,-1,NaN,0,0,0.546527896
3,2,1,1,129,0,0,1,-1,0,NaN,1,0,-1,NaN,0,0.870565766
3,2,1,1,130,0,0,1,0,-1,0,NaN,1,0,-1,NaN,0.685056518
3,2,1,1,131,1,0,1,0,0,-1,0,1,1,0,-1,0.551228457
3,2,1,1,132,1,0,1,-1,0,0,-1,0,1,1,0,0.987272079
3,2,1,1,133,1,0,1,-1,-1,0,0,0,0,1,1,0.754563155
3,2,1,1,134,0,1,0,-1,-1,-1,0,0,0,0,1,1.308157458
3,2,1,1,135,1,0,1,0,-1,-1,-1,-1,0,0,0,0.896403075
3,2,1,1,136,1,0,1,-1,0,-1,-1,0,-1,0,0,0.533327633
3,2,1,1,137,1,0,1,-1,-1,0,-1,0,0,-1,0,0.818400566
3,2,1,1,138,0,0,1,-1,-1,-1,0,0,0,0,-1,0.709111057
3,2,1,1,139,1,0,1,0,-1,-1,-1,1,0,0,0,0.845966124
3,2,1,1,140,1,0,1,-1,0,-1,-1,0,1,0,0,0.706263496
3,2,1,1,141,1,0,1,-1,-1,0,-1,0,0,1,0,1.256920863
3,2,1,1,142,1,0,1,-1,-1,-1,0,0,0,0,1,0.996102965
3,2,1,1,143,0,0,0,-1,-1,-1,-1,0,0,0,0,0
3,2,1,1,144,1,0,1,NaN,-1,-1,-1,NaN,0,0,0,0.922876044
3,2,1,1,145,1,0,1,-1,NaN,-1,-1,0,NaN,0,0,0.582577304
3,2,1,1,146,1,0,1,-1,-1,NaN,-1,0,0,NaN,0,0.729569405
3,2,1,1,147,0,0,0,-1,-1,-1,NaN,0,0,0,NaN,0
3,2,1,1,148,0,0,1,NaN,-1,-1,-1,NaN,0,0,0,0.594000762
3,2,1,1,149,0,0,1,0,NaN,-1,-1,1,NaN,0,0,0.523505148
3,2,1,1,150,1,1,0,0,0,NaN,-1,1,1,NaN,0,0.456612408
3,2,1,1,151,1,1,0,1,0,0,NaN,0,1,1,NaN,0.833114238
3,2,1,1,152,0,1,0,1,1,0,0,0,0,1,1,0.657295381
3,2,1,1,153,1,1,0,0,1,1,0,-1,0,0,1,0.641136236
3,2,1,1,154,0,1,0,1,0,1,1,0,-1,0,0,0.768261957
3,2,1,1,155,0,1,0,0,1,0,1,-1,0,-1,0,0.730647308
3,2,1,1,156,1,0,1,0,0,1,0,-1,-1,0,-1,0.674630279
3,2,1,1,157,1,0,1,-1,0,0,1,0,-1,-1,0,0.6532858
3,2,1,1,158,1,0,1,-1,-1,0,0,0,0,-1,-1,0.886633098
3,2,1,1,159,1,0,1,-1,-1,-1,0,0,0,0,-1,0.724683309
3,2,1,1,160,1,0,1,-1,-1,-1,-1,0,0,0,0,0.999410801
4,2,1,1,1,0,0,0,NaN,NaN,NaN,NaN,NaN,NaN,NaN,NaN,0.940460571
4,2,1,1,2,0,0,0,0,NaN,NaN,NaN,1,NaN,NaN,NaN,0.559887842
4,2,1,1,3,1,1,1,0,0,NaN,NaN,1,1,NaN,NaN,0.641664291
4,2,1,1,4,1,1,1,1,0,0,NaN,0,1,1,NaN,0.688867071
4,2,1,1,5,1,1,1,1,1,0,0,0,0,1,1,0.615906762
4,2,1,1,6,1,1,1,1,1,1,0,0,0,0,1,0.630208035
4,2,1,1,7,1,1,1,1,1,1,1,0,0,0,0,0.621930673
4,2,1,1,8,1,1,1,1,1,1,1,0,0,0,0,0.616326507
4,2,1,1,9,1,1,1,1,1,1,1,0,0,0,0,0.459839702
4,2,1,1,10,1,1,1,1,1,1,1,0,0,0,0,0.773619674
4,2,1,1,11,0,1,1,1,1,1,1,0,0,0,0,0.452943712
4,2,1,1,12,1,1,1,0,1,1,1,-1,0,0,0,0.469474334
4,2,1,1,13,1,1,1,1,0,1,1,0,-1,0,0,0.65649979
4,2,1,1,14,1,1,1,1,1,0,1,0,0,-1,0,0.626060726
4,2,1,1,15,1,1,1,1,1,1,0,0,0,0,-1,0.588990284
4,2,1,1,16,1,1,1,1,1,1,1,0,0,0,0,0.547450634
4,2,1,1,17,1,1,1,1,1,1,1,0,0,0,0,0.636801098
4,2,1,1,18,1,1,1,1,1,1,1,0,0,0,0,0.594285791
4,2,1,1,19,1,1,1,1,1,1,1,0,0,0,0,0.668432783
4,2,1,1,20,0,1,1,1,1,1,1,0,0,0,0,0.560048541
4,2,1,1,21,1,1,1,0,1,1,1,-1,0,0,0,0.526309688
4,2,1,1,22,1,1,1,1,0,1,1,0,-1,0,0,0.620220284
4,2,1,1,23,1,1,1,1,1,0,1,0,0,-1,0,0.667826651
4,2,1,1,24,1,1,1,1,1,1,0,0,0,0,-1,0.531025322
4,2,1,1,25,0,1,1,1,1,1,1,0,0,0,0,0.546613265
4,2,1,1,26,1,1,1,0,1,1,1,-1,0,0,0,0.750917719
4,2,1,1,27,0,1,1,1,0,1,1,0,-1,0,0,0.671032073
4,2,1,1,28,1,1,1,0,1,0,1,-1,0,-1,0,0.60403426
4,2,1,1,29,1,1,1,1,0,1,0,0,-1,0,-1,0.552314278
4,2,1,1,30,1,1,1,1,1,0,1,0,0,-1,0,0.545812345
4,2,1,1,31,1,1,1,1,1,1,0,0,0,0,-1,0.490940506
4,2,1,1,32,1,1,1,1,1,1,1,0,0,0,0,0.856536234
4,2,1,1,33,1,1,1,1,1,1,1,0,0,0,0,0.51193805
4,2,1,1,34,0,1,1,1,1,1,1,0,0,0,0,0.651773062
4,2,1,1,35,1,1,1,0,1,1,1,-1,0,0,0,0.64416845
4,2,1,1,36,1,1,1,1,0,1,1,0,-1,0,0,0.532167211
4,2,1,1,37,1,1,1,1,1,0,1,0,0,-1,0,0.515610853
4,2,1,1,38,1,1,1,1,1,1,0,0,0,0,-1,0.512661805
4,2,1,1,39,0,1,1,1,1,1,1,0,0,0,0,0.515447146
4,2,1,1,40,0,1,1,0,1,1,1,-1,0,0,0,0.572822507
4,2,1,1,41,0,0,0,0,0,1,1,-1,-1,0,0,0.640314951
4,2,1,1,42,1,1,1,0,0,0,1,1,-1,-1,0,0.910414468
4,2,1,1,43,0,1,1,1,0,0,0,0,1,-1,-1,0.664841621
4,2,1,1,44,1,1,1,0,1,0,0,-1,0,1,-1,0.617694157
4,2,1,1,45,1,1,1,1,0,1,0,0,-1,0,1,0.582389701
4,2,1,1,46,1,1,1,1,1,0,1,0,0,-1,0,0.688548301
4,2,1,1,47,1,1,1,1,1,1,0,0,0,0,-1,0.716639503
4,2,1,1,48,1,1,1,1,1,1,1,0,0,0,0,0.593977793
4,2,1,1,49,0,1,1,1,1,1,1,0,0,0,0,0.608518794
4,2,1,1,50,1,1,1,0,1,1,1,-1,0,0,0,0.645622131
4,2,1,1,51,1,1,1,1,0,1,1,0,-1,0,0,0.744877112
4,2,1,1,52,1,1,1,1,1,0,1,0,0,-1,0,0.578734353
4,2,1,1,53,1,1,1,1,1,1,0,0,0,0,-1,0.597668121
4,2,1,1,54,1,1,1,1,1,1,1,0,0,0,0,0.950325407
4,2,1,1,55,1,1,1,1,1,1,1,0,0,0,0,0.563870848
4,2,1,1,56,0,1,0,1,1,1,1,0,0,0,0,0.601763439
4,2,1,1,57,1,1,0,0,1,1,1,-1,0,0,0,0.641782705
4,2,1,1,58,0,1,0,1,0,1,1,0,-1,0,0,0.514209392
4,2,1,1,59,1,0,1,0,1,0,1,-1,0,-1,0,0.666363968
4,2,1,1,60,1,0,1,-1,0,1,0,0,-1,0,-1,0.673607887
4,2,1,1,61,1,0,1,-1,-1,0,1,0,0,-1,0,1.022764242
4,2,1,1,62,1,0,1,-1,-1,-1,0,0,0,0,-1,0.535532011
4,2,1,1,63,1,0,1,-1,-1,-1,-1,0,0,0,0,0.724709487
4,2,1,1,64,1,0,1,-1,-1,-1,-1,0,0,0,0,0.545683391
4,2,1,1,65,0,1,0,-1,-1,-1,-1,0,0,0,0,1.056405344
4,2,1,1,66,1,0,1,0,-1,-1,-1,-1,0,0,0,0.651802636
4,2,1,1,67,0,0,1,-1,0,-1,-1,0,-1,0,0,0.597003596
4,2,1,1,68,1,0,1,0,-1,0,-1,1,0,-1,0,0.489458182
4,2,1,1,69,1,0,1,-1,0,-1,0,0,1,0,-1,0.493435577
4,2,1,1,70,1,0,1,-1,-1,0,-1,0,0,1,0,0.450625151
4,2,1,1,71,0,0,0,-1,-1,-1,0,0,0,0,1,0.54444818
4,2,1,1,72,0,0,0,0,-1,-1,-1,1,0,0,0,0.53002991
4,2,1,1,73,0,0,0,0,0,-1,-1,1,1,0,0,0.570378521
4,2,1,1,74,0,1,1,0,0,0,-1,1,1,1,0,0.457893044
4,2,1,1,75,1,1,1,0,0,0,0,-1,1,1,1,0.52410838
4,2,1,1,76,1,1,1,1,0,0,0,0,-1,1,1,0.784981634
4,2,1,1,77,0,0,0,1,1,0,0,0,0,-1,1,0
4,2,1,1,78,0,0,0,NaN,1,1,0,NaN,0,0,-1,0.534774302
4,2,1,1,79,1,1,1,0,NaN,1,1,1,NaN,0,0,0.841887862
4,2,1,1,80,0,1,1,1,0,NaN,1,0,1,NaN,0,0.583115579
4,2,1,1,81,1,1,1,0,1,0,NaN,-1,0,1,NaN,0.690030755
4,2,1,1,82,0,1,1,1,0,1,0,0,-1,0,1,0.56610128
4,2,1,1,83,0,1,1,0,1,0,1,-1,0,-1,0,0.58238737
4,2,1,1,84,1,1,1,0,0,1,0,-1,-1,0,-1,1.194677926
4,2,1,1,85,1,1,1,1,0,0,1,0,-1,-1,0,0.437076153
4,2,1,1,86,1,1,1,1,1,0,0,0,0,-1,-1,0.633698065
4,2,1,1,87,0,1,1,1,1,1,0,0,0,0,-1,0.803177221
4,2,1,1,88,1,1,1,0,1,1,1,-1,0,0,0,0.569291329
4,2,1,1,89,0,1,1,1,0,1,1,0,-1,0,0,0.581150837
4,2,1,1,90,1,0,0,0,1,0,1,-1,0,-1,0,0.524900012
4,2,1,1,91,1,0,1,-1,0,1,0,0,-1,0,-1,0.559479264
4,2,1,1,92,1,0,1,-1,-1,0,1,0,0,-1,0,0.758572609
4,2,1,1,93,0,0,1,-1,-1,-1,0,0,0,0,-1,1.23783121
4,2,1,1,94,1,0,1,0,-1,-1,-1,1,0,0,0,0.603406618
4,2,1,1,95,1,0,1,-1,0,-1,-1,0,1,0,0,0.930969927
4,2,1,1,96,0,0,1,-1,-1,0,-1,0,0,1,0,0.758083975
4,2,1,1,97,1,0,1,0,-1,-1,0,1,0,0,1,0.780159241
4,2,1,1,98,1,0,1,-1,0,-1,-1,0,1,0,0,0.802018175
4,2,1,1,99,1,0,1,-1,-1,0,-1,0,0,1,0,0.688603356
4,2,1,1,100,1,0,1,-1,-1,-1,0,0,0,0,1,0.715820233
4,2,1,1,101,1,0,1,-1,-1,-1,-1,0,0,0,0,0.804963782
4,2,1,1,102,1,0,1,-1,-1,-1,-1,0,0,0,0,0.579613881
4,2,1,1,103,1,0,1,-1,-1,-1,-1,0,0,0,0,0.929032722
4,2,1,1,104,1,0,1,-1,-1,-1,-1,0,0,0,0,0.604079456
4,2,1,1,105,1,0,1,-1,-1,-1,-1,0,0,0,0,0.71917345
4,2,1,1,106,0,0,0,-1,-1,-1,-1,0,0,0,0,0.603773909
4,2,1,1,107,0,0,0,0,-1,-1,-1,1,0,0,0,0.586791545
4,2,1,1,108,1,1,1,0,0,-1,-1,1,1,0,0,1.123578242
4,2,1,1,109,0,1,1,1,0,0,-1,0,1,1,0,0.671534453
4,2,1,1,110,1,1,1,0,1,0,0,-1,0,1,1,0.570250242
4,2,1,1,111,1,1,1,1,0,1,0,0,-1,0,1,0.657084542
4,2,1,1,112,1,1,1,1,1,0,1,0,0,-1,0,0.750960659
4,2,1,1,113,0,1,1,1,1,1,0,0,0,0,-1,0.658377103
4,2,1,1,114,1,1,1,0,1,1,1,-1,0,0,0,0.609963769
4,2,1,1,115,1,1,1,1,0,1,1,0,-1,0,0,0.746879369
4,2,1,1,116,1,1,1,1,1,0,1,0,0,-1,0,0.761531814
4,2,1,1,117,1,1,1,1,1,1,0,0,0,0,-1,0.637326903
4,2,1,1,118,1,1,1,1,1,1,1,0,0,0,0,0.580809893
4,2,1,1,119,1,1,1,1,1,1,1,0,0,0,0,0.693974165
4,2,1,1,120,1,1,1,1,1,1,1,0,0,0,0,0.637919963
4,2,1,1,121,1,1,1,1,1,1,1,0,0,0,0,0.561831242
4,2,1,1,122,1,1,1,1,1,1,1,0,0,0,0,0.709467528
4,2,1,1,123,1,1,1,1,1,1,1,0,0,0,0,0.749445079
4,2,1,1,124,0,1,1,1,1,1,1,0,0,0,0,0.597121568
4,2,1,1,125,1,1,1,0,1,1,1,-1,0,0,0,0.522209296
4,2,1,1,126,0,1,0,1,0,1,1,0,-1,0,0,0.778022358
4,2,1,1,127,1,1,0,0,1,0,1,-1,0,-1,0,0.497255887
4,2,1,1,128,0,1,0,1,0,1,0,0,-1,0,-1,0.668273628
4,2,1,1,129,1,0,1,0,1,0,1,-1,0,-1,0,0.516190244
4,2,1,1,130,1,0,1,-1,0,1,0,0,-1,0,-1,0.689497332
4,2,1,1,131,1,0,1,-1,-1,0,1,0,0,-1,0,0.502007883
4,2,1,1,132,1,0,1,-1,-1,-1,0,0,0,0,-1,0.641750511
4,2,1,1,133,1,0,1,-1,-1,-1,-1,0,0,0,0,0.77538905
4,2,1,1,134,1,0,1,-1,-1,-1,-1,0,0,0,0,0.577831185
4,2,1,1,135,1,0,1,-1,-1,-1,-1,0,0,0,0,0.530338327
4,2,1,1,136,1,0,1,-1,-1,-1,-1,0,0,0,0,0.485786451
4,2,1,1,137,1,0,1,-1,-1,-1,-1,0,0,0,0,0.512012763
4,2,1,1,138,1,0,1,-1,-1,-1,-1,0,0,0,0,0.575688448
4,2,1,1,139,1,0,1,-1,-1,-1,-1,0,0,0,0,0.798753977
4,2,1,1,140,1,0,1,-1,-1,-1,-1,0,0,0,0,0.774814313
4,2,1,1,141,1,0,1,-1,-1,-1,-1,0,0,0,0,0.555072861
4,2,1,1,142,0,0,1,-1,-1,-1,-1,0,0,0,0,0.548223989
4,2,1,1,143,0,0,1,0,-1,-1,-1,1,0,0,0,0.62109877
4,2,1,1,144,1,0,1,0,0,-1,-1,1,1,0,0,0.794932818
4,2,1,1,145,1,0,1,-1,0,0,-1,0,1,1,0,0.547115241
4,2,1,1,146,1,0,1,-1,-1,0,0,0,0,1,1,0.744097908
4,2,1,1,147,1,0,1,-1,-1,-1,0,0,0,0,1,0.82220086
4,2,1,1,148,1,0,1,-1,-1,-1,-1,0,0,0,0,0.746379768
4,2,1,1,149,1,0,1,-1,-1,-1,-1,0,0,0,0,0.53627559
4,2,1,1,150,1,0,1,-1,-1,-1,-1,0,0,0,0,0.656269197
4,2,1,1,151,1,0,1,-1,-1,-1,-1,0,0,0,0,0.975991558
4,2,1,1,152,1,0,1,-1,-1,-1,-1,0,0,0,0,0.722732241
4,2,1,1,153,1,0,1,-1,-1,-1,-1,0,0,0,0,0.751981308
4,2,1,1,154,1,0,1,-1,-1,-1,-1,0,0,0,0,0.542517802
4,2,1,1,155,1,0,1,-1,-1,-1,-1,0,0,0,0,0.634961845
4,2,1,1,156,1,0,1,-1,-1,-1,-1,0,0,0,0,0.477836845
4,2,1,1,157,1,0,1,-1,-1,-1,-1,0,0,0,0,1.21735704
4,2,1,1,158,1,0,1,-1,-1,-1,-1,0,0,0,0,0.507701418
4,2,1,1,159,1,0,1,-1,-1,-1,-1,0,0,0,0,0.51666857
4,2,1,1,160,1,0,1,-1,-1,-1,-1,0,0,0,0,0.627700967
5,2,1,1,1,1,0,1,NaN,NaN,NaN,NaN,NaN,NaN,NaN,NaN,0.929399832
5,2,1,1,2,1,0,1,-1,NaN,NaN,NaN,0,NaN,NaN,NaN,0.795133414
5,2,1,1,3,0,0,1,-1,-1,NaN,NaN,0,0,NaN,NaN,0.508901065
5,2,1,1,4,1,0,1,0,-1,-1,NaN,1,0,0,NaN,0.319612981
5,2,1,1,5,0,1,0,-1,0,-1,-1,0,1,0,0,0.838684648
5,2,1,1,6,0,1,0,0,-1,0,-1,-1,0,1,0,0.702166678
5,2,1,1,7,0,1,0,0,0,-1,0,-1,-1,0,1,0.978111833
5,2,1,1,8,0,1,0,0,0,0,-1,-1,-1,-1,0,1.092206749
5,2,1,1,9,0,0,1,0,0,0,0,-1,-1,-1,-1,1.027988085
5,2,1,1,10,0,1,0,0,0,0,0,1,-1,-1,-1,0.422701211
5,2,1,1,11,1,1,0,0,0,0,0,-1,1,-1,-1,0.890139854
5,2,1,1,12,0,1,0,1,0,0,0,0,-1,1,-1,0.742031679
5,2,1,1,13,0,1,0,0,1,0,0,-1,0,-1,1,0.505747577
5,2,1,1,14,1,0,1,0,0,1,0,-1,-1,0,-1,0.830381118
5,2,1,1,15,1,0,1,-1,0,0,1,0,-1,-1,0,0.528473048
5,2,1,1,16,1,0,1,-1,-1,0,0,0,0,-1,-1,0.429693699
5,2,1,1,17,0,0,1,-1,-1,-1,0,0,0,0,-1,0.544364423
5,2,1,1,18,0,1,0,0,-1,-1,-1,1,0,0,0,0.959518331
5,2,1,1,19,1,0,1,0,0,-1,-1,-1,1,0,0,1.028459997
5,2,1,1,20,1,0,1,-1,0,0,-1,0,-1,1,0,0.503752202
5,2,1,1,21,1,0,1,-1,-1,0,0,0,0,-1,1,0.570475346
5,2,1,1,22,0,1,0,-1,-1,-1,0,0,0,0,-1,0.403967855
5,2,1,1,23,1,0,1,0,-1,-1,-1,-1,0,0,0,0.588722417
5,2,1,1,24,1,0,1,-1,0,-1,-1,0,-1,0,0,0.575098494
5,2,1,1,25,0,0,1,-1,-1,0,-1,0,0,-1,0,0.568812622
5,2,1,1,26,1,0,1,0,-1,-1,0,1,0,0,-1,0.377407781
5,2,1,1,27,1,0,1,-1,0,-1,-1,0,1,0,0,0.432537762
5,2,1,1,28,0,1,0,-1,-1,0,-1,0,0,1,0,0.540970638
5,2,1,1,29,0,1,0,0,-1,-1,0,-1,0,0,1,0.697038358
5,2,1,1,30,1,0,1,0,0,-1,-1,-1,-1,0,0,0.788192714
5,2,1,1,31,1,0,1,-1,0,0,-1,0,-1,-1,0,0.544562973
5,2,1,1,32,0,0,1,-1,-1,0,0,0,0,-1,-1,0.526589929
5,2,1,1,33,0,1,0,0,-1,-1,0,1,0,0,-1,0.949877267
5,2,1,1,34,0,1,0,0,0,-1,-1,-1,1,0,0,0.582051825
5,2,1,1,35,1,0,1,0,0,0,-1,-1,-1,1,0,0.579112324
5,2,1,1,36,0,0,1,-1,0,0,0,0,-1,-1,1,0.444011769
5,2,1,1,37,1,0,1,0,-1,0,0,1,0,-1,-1,0.667716531
5,2,1,1,38,0,1,0,-1,0,-1,0,0,1,0,-1,0.744005541
5,2,1,1,39,1,0,1,0,-1,0,-1,-1,0,1,0,0.626167467
5,2,1,1,40,1,0,1,-1,0,-1,0,0,-1,0,1,0.582311999
5,2,1,1,41,0,0,1,-1,-1,0,-1,0,0,-1,0,0.682768629
5,2,1,1,42,1,0,1,0,-1,-1,0,1,0,0,-1,0.484400956
5,2,1,1,43,0,1,0,-1,0,-1,-1,0,1,0,0,0.548689497
5,2,1,1,44,1,0,1,0,-1,0,-1,-1,0,1,0,0.597200822
5,2,1,1,45,0,0,1,-1,0,-1,0,0,-1,0,1,0.502948344
5,2,1,1,46,1,0,1,0,-1,0,-1,1,0,-1,0,0.660762922
5,2,1,1,47,1,0,1,-1,0,-1,0,0,1,0,-1,0.371930208
5,2,1,1,48,0,1,0,-1,-1,0,-1,0,0,1,0,0.55512198
5,2,1,1,49,0,0,1,0,-1,-1,0,-1,0,0,1,1.011036487
5,2,1,1,50,1,0,1,0,0,-1,-1,1,-1,0,0,0.365943867
5,2,1,1,51,1,0,1,-1,0,0,-1,0,1,-1,0,0.404740944
5,2,1,1,52,0,1,0,-1,-1,0,0,0,0,1,-1,0.324446848
5,2,1,1,53,1,0,1,0,-1,-1,0,-1,0,0,1,0.47247162
5,2,1,1,54,1,0,1,-1,0,-1,-1,0,-1,0,0,0.536134711
5,2,1,1,55,0,0,1,-1,-1,0,-1,0,0,-1,0,0.565720085
5,2,1,1,56,0,0,0,0,-1,-1,0,1,0,0,-1,0.67549735
5,2,1,1,57,1,1,1,0,0,-1,-1,1,1,0,0,0.553072567
5,2,1,1,58,1,1,1,1,0,0,-1,0,1,1,0,0.441183941
5,2,1,1,59,1,1,1,1,1,0,0,0,0,1,1,0.483384272
5,2,1,1,60,1,1,1,1,1,1,0,0,0,0,1,0.467126283
5,2,1,1,61,1,1,1,1,1,1,1,0,0,0,0,0.608548398
5,2,1,1,62,0,1,1,1,1,1,1,0,0,0,0,0.696201872
5,2,1,1,63,0,0,0,0,1,1,1,-1,0,0,0,0.557868601
5,2,1,1,64,0,1,1,0,0,1,1,1,-1,0,0,0.918281032
5,2,1,1,65,1,0,0,0,0,0,1,-1,1,-1,0,0.588677815
5,2,1,1,66,0,0,0,-1,0,0,0,0,-1,1,-1,0.327918821
5,2,1,1,67,0,0,0,0,-1,0,0,1,0,-1,1,0.433170581
5,2,1,1,68,1,1,1,0,0,-1,0,1,1,0,-1,0.49451788
5,2,1,1,69,0,0,0,1,0,0,-1,0,1,1,0,0.644899891
5,2,1,1,70,1,1,1,0,1,0,0,1,0,1,1,0.635390228
5,2,1,1,71,1,1,0,1,0,1,0,0,1,0,1,0.630272113
5,2,1,1,72,1,0,1,1,1,0,1,0,0,1,0,0.367966604
5,2,1,1,73,0,1,0,-1,1,1,0,0,0,0,1,0.556008845
5,2,1,1,74,0,0,1,0,-1,1,1,-1,0,0,0,0.431941255
5,2,1,1,75,1,0,1,0,0,-1,1,1,-1,0,0,0.701742488
5,2,1,1,76,0,1,0,-1,0,0,-1,0,1,-1,0,0.502311285
5,2,1,1,77,0,1,0,0,-1,0,0,-1,0,1,-1,0.60442081
5,2,1,1,78,1,0,1,0,0,-1,0,-1,-1,0,1,0.461260408
5,2,1,1,79,0,1,0,-1,0,0,-1,0,-1,-1,0,0.600435756
5,2,1,1,80,1,0,1,0,-1,0,0,-1,0,-1,-1,0.507091598
5,2,1,1,81,0,1,0,-1,0,-1,0,0,-1,0,-1,0.382804904
5,2,1,1,82,1,0,1,0,-1,0,-1,-1,0,-1,0,0.671207866
5,2,1,1,83,1,0,1,-1,0,-1,0,0,-1,0,-1,0.620814568
5,2,1,1,84,1,0,1,-1,-1,0,-1,0,0,-1,0,0.661224567
5,2,1,1,85,1,0,1,-1,-1,-1,0,0,0,0,-1,0.457939026
5,2,1,1,86,0,0,1,-1,-1,-1,-1,0,0,0,0,0.5190678
5,2,1,1,87,1,0,1,0,-1,-1,-1,1,0,0,0,0.533064317
5,2,1,1,88,1,0,1,-1,0,-1,-1,0,1,0,0,0.63961409
5,2,1,1,89,1,0,1,-1,-1,0,-1,0,0,1,0,0.598647421
5,2,1,1,90,1,0,1,-1,-1,-1,0,0,0,0,1,0.470681881
5,2,1,1,91,1,0,0,-1,-1,-1,-1,0,0,0,0,0.774379658
5,2,1,1,92,0,0,0,-1,-1,-1,-1,0,0,0,0,0.646132427
5,2,1,1,93,0,0,0,0,-1,-1,-1,1,0,0,0,1.289491969
5,2,1,1,94,1,1,1,0,0,-1,-1,1,1,0,0,0.753787117
5,2,1,1,95,1,1,1,1,0,0,-1,0,1,1,0,0.558117372
5,2,1,1,96,1,1,1,1,1,0,0,0,0,1,1,0.611611784
5,2,1,1,97,0,1,1,1,1,1,0,0,0,0,1,0.655940054
5,2,1,1,98,0,0,0,0,1,1,1,-1,0,0,0,0.562087895
5,2,1,1,99,1,1,1,0,0,1,1,1,-1,0,0,0.440115458
5,2,1,1,100,1,1,1,1,0,0,1,0,1,-1,0,0.468214388
5,2,1,1,101,1,1,1,1,1,0,0,0,0,1,-1,0.725095146
5,2,1,1,102,1,1,1,1,1,1,0,0,0,0,1,0.447922896
5,2,1,1,103,1,1,1,1,1,1,1,0,0,0,0,0.57869963
5,2,1,1,104,1,1,1,1,1,1,1,0,0,0,0,0.387328379
5,2,1,1,105,1,0,0,1,1,1,1,0,0,0,0,0.501483376
5,2,1,1,106,0,1,0,-1,1,1,1,0,0,0,0,0.561957233
5,2,1,1,107,0,0,1,0,-1,1,1,-1,0,0,0,0.677029848
5,2,1,1,108,0,0,1,0,0,-1,1,1,-1,0,0,0.65235191
5,2,1,1,109,0,1,0,0,0,0,-1,1,1,-1,0,0.417488401
5,2,1,1,110,1,0,1,0,0,0,0,-1,1,1,-1,0.624555458
5,2,1,1,111,1,0,1,-1,0,0,0,0,-1,1,1,0.695109607
5,2,1,1,112,1,0,1,-1,-1,0,0,0,0,-1,1,0.516318091
5,2,1,1,113,1,0,1,-1,-1,-1,0,0,0,0,-1,0.475262212
5,2,1,1,114,1,0,1,-1,-1,-1,-1,0,0,0,0,0.512548393
5,2,1,1,115,1,0,1,-1,-1,-1,-1,0,0,0,0,0.681507831
5,2,1,1,116,1,0,1,-1,-1,-1,-1,0,0,0,0,0.718302288
5,2,1,1,117,1,0,1,-1,-1,-1,-1,0,0,0,0,0.539790617
5,2,1,1,118,0,1,0,-1,-1,-1,-1,0,0,0,0,0.597101229
5,2,1,1,119,1,1,0,0,-1,-1,-1,-1,0,0,0,0.479227166
5,2,1,1,120,0,1,0,1,0,-1,-1,0,-1,0,0,0.739011835
5,2,1,1,121,1,1,0,0,1,0,-1,-1,0,-1,0,0.553976278
5,2,1,1,122,0,1,0,1,0,1,0,0,-1,0,-1,0.577840348
5,2,1,1,123,1,0,1,0,1,0,1,-1,0,-1,0,0.46211148
5,2,1,1,124,1,0,1,-1,0,1,0,0,-1,0,-1,0.585437593
5,2,1,1,125,1,0,1,-1,-1,0,1,0,0,-1,0,0.45989318
5,2,1,1,126,0,0,0,-1,-1,-1,0,0,0,0,-1,0.51308608
5,2,1,1,127,1,1,1,0,-1,-1,-1,1,0,0,0,0.687736156
5,2,1,1,128,1,1,1,1,0,-1,-1,0,1,0,0,0.577536823
5,2,1,1,129,1,1,1,1,1,0,-1,0,0,1,0,0.630640615
5,2,1,1,130,1,1,1,1,1,1,0,0,0,0,1,0.918921923
5,2,1,1,131,0,0,0,1,1,1,1,0,0,0,0,0.54515752
5,2,1,1,132,1,0,0,0,1,1,1,1,0,0,0,0.788244998
5,2,1,1,133,0,0,0,-1,0,1,1,0,1,0,0,0.636093844
5,2,1,1,134,0,0,0,0,-1,0,1,1,0,1,0,0.676564757
5,2,1,1,135,0,0,0,0,0,-1,0,1,1,0,1,0.707671318
5,2,1,1,136,1,1,1,0,0,0,-1,1,1,1,0,0.750075198
5,2,1,1,137,1,1,1,1,0,0,0,0,1,1,1,0.561069667
5,2,1,1,138,0,1,1,1,1,0,0,0,0,1,1,0.646013456
5,2,1,1,139,1,1,1,0,1,1,0,-1,0,0,1,0.638742237
5,2,1,1,140,1,1,1,1,0,1,1,0,-1,0,0,0.589973115
5,2,1,1,141,1,1,1,1,1,0,1,0,0,-1,0,0.522125557
5,2,1,1,142,1,1,1,1,1,1,0,0,0,0,-1,0.578501414
5,2,1,1,143,0,0,0,1,1,1,1,0,0,0,0,0.454540389
5,2,1,1,144,1,1,1,0,1,1,1,1,0,0,0,0.604949766
5,2,1,1,145,0,0,0,1,0,1,1,0,1,0,0,0.680128957
5,2,1,1,146,0,1,1,0,1,0,1,1,0,1,0,0.71026335
5,2,1,1,147,1,0,0,0,0,1,0,-1,1,0,1,0.705439488
5,2,1,1,148,0,0,0,-1,0,0,1,0,-1,1,0,0.513483406
5,2,1,1,149,0,0,0,0,-1,0,0,1,0,-1,1,0.631995877
5,2,1,1,150,0,0,0,0,0,-1,0,1,1,0,-1,0.652380576
5,2,1,1,151,1,1,1,0,0,0,-1,1,1,1,0,0.513835285
5,2,1,1,152,1,1,1,1,0,0,0,0,1,1,1,0.483256567
5,2,1,1,153,1,1,1,1,1,0,0,0,0,1,1,0.410900966
5,2,1,1,154,1,1,1,1,1,1,0,0,0,0,1,0.437279656
5,2,1,1,155,0,0,0,1,1,1,1,0,0,0,0,0.670008121
5,2,1,1,156,1,1,1,0,1,1,1,1,0,0,0,1.097994737
5,2,1,1,157,1,1,1,1,0,1,1,0,1,0,0,0.416952192
5,2,1,1,158,1,1,1,1,1,0,1,0,0,1,0,0.433919446
5,2,1,1,159,1,1,1,1,1,1,0,0,0,0,1,0.555648081
5,2,1,1,160,1,1,1,1,1,1,1,0,0,0,0,0.487207194
6,2,1,1,1,0,1,0,NaN,NaN,NaN,NaN,NaN,NaN,NaN,NaN,1.227226636
6,2,1,1,2,1,0,1,0,NaN,NaN,NaN,-1,NaN,NaN,NaN,0.519658709
6,2,1,1,3,1,0,1,-1,0,NaN,NaN,0,-1,NaN,NaN,0.520223043
6,2,1,1,4,1,0,1,-1,-1,0,NaN,0,0,-1,NaN,0.544126004
6,2,1,1,5,1,0,1,-1,-1,-1,0,0,0,0,-1,0.574809271
6,2,1,1,6,0,0,1,-1,-1,-1,-1,0,0,0,0,0.607984955
6,2,1,1,7,0,0,1,0,-1,-1,-1,1,0,0,0,0.469206756
6,2,1,1,8,1,0,1,0,0,-1,-1,1,1,0,0,0.617136859
6,2,1,1,9,1,0,1,-1,0,0,-1,0,1,1,0,0.593645754
6,2,1,1,10,1,0,1,-1,-1,0,0,0,0,1,1,0.539387168
6,2,1,1,11,0,0,1,-1,-1,-1,0,0,0,0,1,0.483149726
6,2,1,1,12,1,0,1,0,-1,-1,-1,1,0,0,0,0.57912466
6,2,1,1,13,1,0,1,-1,0,-1,-1,0,1,0,0,0.482629891
6,2,1,1,14,1,0,1,-1,-1,0,-1,0,0,1,0,0.410672603
6,2,1,1,15,1,0,1,-1,-1,-1,0,0,0,0,1,0.519438777
6,2,1,1,16,1,0,1,-1,-1,-1,-1,0,0,0,0,0.471255462
6,2,1,1,17,1,0,1,-1,-1,-1,-1,0,0,0,0,0.492286157
6,2,1,1,18,1,0,1,-1,-1,-1,-1,0,0,0,0,0.457917219
6,2,1,1,19,1,0,1,-1,-1,-1,-1,0,0,0,0,0.443790235
6,2,1,1,20,1,0,1,-1,-1,-1,-1,0,0,0,0,0.49500091
6,2,1,1,21,0,0,1,-1,-1,-1,-1,0,0,0,0,0.485826819
6,2,1,1,22,1,0,1,0,-1,-1,-1,1,0,0,0,0.507783858
6,2,1,1,23,0,0,1,-1,0,-1,-1,0,1,0,0,0.461446447
6,2,1,1,24,1,0,1,0,-1,0,-1,1,0,1,0,0.518117368
6,2,1,1,25,1,0,1,-1,0,-1,0,0,1,0,1,0.452929069
6,2,1,1,26,1,0,1,-1,-1,0,-1,0,0,1,0,0.42632821
6,2,1,1,27,1,0,1,-1,-1,-1,0,0,0,0,1,0.449281675
6,2,1,1,28,1,1,0,-1,-1,-1,-1,0,0,0,0,0.42464248
6,2,1,1,29,1,0,1,1,-1,-1,-1,0,0,0,0,0.652873984
6,2,1,1,30,1,0,1,-1,1,-1,-1,0,0,0,0,0.537280593
6,2,1,1,31,1,0,1,-1,-1,1,-1,0,0,0,0,0.467211656
6,2,1,1,32,1,0,1,-1,-1,-1,1,0,0,0,0,0.488330682
6,2,1,1,33,1,0,1,-1,-1,-1,-1,0,0,0,0,0.468177672
6,2,1,1,34,1,0,1,-1,-1,-1,-1,0,0,0,0,0.547066508
6,2,1,1,35,1,0,1,-1,-1,-1,-1,0,0,0,0,0.488603601
6,2,1,1,36,1,0,1,-1,-1,-1,-1,0,0,0,0,0.508835049
6,2,1,1,37,1,0,1,-1,-1,-1,-1,0,0,0,0,0.496317091
6,2,1,1,38,1,0,1,-1,-1,-1,-1,0,0,0,0,0.506811733
6,2,1,1,39,1,0,1,-1,-1,-1,-1,0,0,0,0,0.404388177
6,2,1,1,40,1,0,1,-1,-1,-1,-1,0,0,0,0,0.420006889
6,2,1,1,41,0,0,1,-1,-1,-1,-1,0,0,0,0,0.465096313
6,2,1,1,42,1,0,1,0,-1,-1,-1,1,0,0,0,0.570348882
6,2,1,1,43,1,0,1,-1,0,-1,-1,0,1,0,0,0.482891811
6,2,1,1,44,0,1,0,-1,-1,0,-1,0,0,1,0,0.405354098
6,2,1,1,45,1,0,1,0,-1,-1,0,-1,0,0,1,0.410940134
6,2,1,1,46,1,0,1,-1,0,-1,-1,0,-1,0,0,0.533636101
6,2,1,1,47,1,0,1,-1,-1,0,-1,0,0,-1,0,0.441502708
6,2,1,1,48,1,0,1,-1,-1,-1,0,0,0,0,-1,0.4379828
6,2,1,1,49,1,0,1,-1,-1,-1,-1,0,0,0,0,0.420011305
6,2,1,1,50,1,0,1,-1,-1,-1,-1,0,0,0,0,0.457015985
6,2,1,1,51,0,0,1,-1,-1,-1,-1,0,0,0,0,0.522367054
6,2,1,1,52,1,0,1,0,-1,-1,-1,1,0,0,0,0.483031893
6,2,1,1,53,0,0,1,-1,0,-1,-1,0,1,0,0,0.485642471
6,2,1,1,54,1,0,1,0,-1,0,-1,1,0,1,0,0.503642812
6,2,1,1,55,1,0,1,-1,0,-1,0,0,1,0,1,0.481720885
6,2,1,1,56,0,0,0,-1,-1,0,-1,0,0,1,0,0.452459249
6,2,1,1,57,1,0,0,0,-1,-1,0,1,0,0,1,0.525726906
6,2,1,1,58,0,0,0,-1,0,-1,-1,0,1,0,0,0.454665279
6,2,1,1,59,0,0,0,0,-1,0,-1,1,0,1,0,0.448637631
6,2,1,1,60,0,0,0,0,0,-1,0,1,1,0,1,0.511042502
6,2,1,1,61,0,1,1,0,0,0,-1,1,1,1,0,0.53027163
6,2,1,1,62,0,1,1,0,0,0,0,-1,1,1,1,0.546992192
6,2,1,1,63,0,0,0,0,0,0,0,-1,-1,1,1,0.538658703
6,2,1,1,64,0,0,0,0,0,0,0,1,-1,-1,1,0.63066095
6,2,1,1,65,0,1,1,0,0,0,0,1,1,-1,-1,0.551983936
6,2,1,1,66,1,0,0,0,0,0,0,-1,1,1,-1,0.630584972
6,2,1,1,67,0,0,0,-1,0,0,0,0,-1,1,1,0.43023523
6,2,1,1,68,0,0,0,0,-1,0,0,1,0,-1,1,0.370154463
6,2,1,1,69,1,1,1,0,0,-1,0,1,1,0,-1,0.71451271
6,2,1,1,70,1,1,1,1,0,0,-1,0,1,1,0,0.578522456
6,2,1,1,71,0,1,0,1,1,0,0,0,0,1,1,0.511104604
6,2,1,1,72,0,1,0,0,1,1,0,-1,0,0,1,0.896460775
6,2,1,1,73,1,0,1,0,0,1,1,-1,-1,0,0,0.594318937
6,2,1,1,74,0,0,1,-1,0,0,1,0,-1,-1,0,0.474787677
6,2,1,1,75,1,0,1,0,-1,0,0,1,0,-1,-1,0.569722364
6,2,1,1,76,0,1,0,-1,0,-1,0,0,1,0,-1,0.475766774
6,2,1,1,77,0,0,1,0,-1,0,-1,-1,0,1,0,0.665306145
6,2,1,1,78,1,0,1,0,0,-1,0,1,-1,0,1,0.616480986
6,2,1,1,79,0,1,0,-1,0,0,-1,0,1,-1,0,0.674480666
6,2,1,1,80,0,1,0,0,-1,0,0,-1,0,1,-1,0.452539851
6,2,1,1,81,1,0,1,0,0,-1,0,-1,-1,0,1,0.550676238
6,2,1,1,82,1,0,1,-1,0,0,-1,0,-1,-1,0,0.452510273
6,2,1,1,83,1,0,1,-1,-1,0,0,0,0,-1,-1,0.731355207
6,2,1,1,84,0,0,1,-1,-1,-1,0,0,0,0,-1,0.481028237
6,2,1,1,85,0,0,1,0,-1,-1,-1,1,0,0,0,0.579281711
6,2,1,1,86,1,1,0,0,0,-1,-1,1,1,0,0,0.589266795
6,2,1,1,87,0,1,0,1,0,0,-1,0,1,1,0,0.559960763
6,2,1,1,88,1,0,1,0,1,0,0,-1,0,1,1,0.568159385
6,2,1,1,89,1,0,1,-1,0,1,0,0,-1,0,1,0.507758125
6,2,1,1,90,0,0,1,-1,-1,0,1,0,0,-1,0,0.494267012
6,2,1,1,91,0,0,0,0,-1,-1,0,1,0,0,-1,0.613196403
6,2,1,1,92,1,1,1,0,0,-1,-1,1,1,0,0,0.421981767
6,2,1,1,93,1,1,1,1,0,0,-1,0,1,1,0,0.675876963
6,2,1,1,94,1,1,1,1,1,0,0,0,0,1,1,0.773481974
6,2,1,1,95,1,1,1,1,1,1,0,0,0,0,1,0.496126106
6,2,1,1,96,1,1,1,1,1,1,1,0,0,0,0,0.43952575
6,2,1,1,97,1,1,1,1,1,1,1,0,0,0,0,0.437422647
6,2,1,1,98,1,1,1,1,1,1,1,0,0,0,0,0.531605707
6,2,1,1,99,1,1,1,1,1,1,1,0,0,0,0,0.513906317
6,2,1,1,100,1,1,1,1,1,1,1,0,0,0,0,0.454849667
6,2,1,1,101,1,1,1,1,1,1,1,0,0,0,0,0.470288313
6,2,1,1,102,0,1,1,1,1,1,1,0,0,0,0,0.502097038
6,2,1,1,103,1,1,1,0,1,1,1,-1,0,0,0,0.406503701
6,2,1,1,104,0,1,1,1,0,1,1,0,-1,0,0,0.474165509
6,2,1,1,105,1,1,1,0,1,0,1,-1,0,-1,0,0.552353
6,2,1,1,106,1,1,0,1,0,1,0,0,-1,0,-1,0.416521639
6,2,1,1,107,1,0,1,1,1,0,1,0,0,-1,0,0.496775601
6,2,1,1,108,0,1,0,-1,1,1,0,0,0,0,-1,0.564294156
6,2,1,1,109,1,1,0,0,-1,1,1,-1,0,0,0,0.602701045
6,2,1,1,110,0,1,0,1,0,-1,1,0,-1,0,0,0.49708933
6,2,1,1,111,1,1,0,0,1,0,-1,-1,0,-1,0,0.636819064
6,2,1,1,112,0,1,0,1,0,1,0,0,-1,0,-1,0.451519874
6,2,1,1,113,1,1,0,0,1,0,1,-1,0,-1,0,0.419293611
6,2,1,1,114,0,1,0,1,0,1,0,0,-1,0,-1,0.511425305
6,2,1,1,115,0,1,0,0,1,0,1,-1,0,-1,0,0.507362591
6,2,1,1,116,0,1,0,0,0,1,0,-1,-1,0,-1,0.512179222
6,2,1,1,117,0,1,0,0,0,0,1,-1,-1,-1,0,0.62784702
6,2,1,1,118,1,0,1,0,0,0,0,-1,-1,-1,-1,0.424641075
6,2,1,1,119,0,0,1,-1,0,0,0,0,-1,-1,-1,0.476347523
6,2,1,1,120,1,0,1,0,-1,0,0,1,0,-1,-1,0.437265618
6,2,1,1,121,1,0,1,-1,0,-1,0,0,1,0,-1,0.411741194
6,2,1,1,122,1,1,0,-1,-1,0,-1,0,0,1,0,0.381141355
6,2,1,1,123,0,1,0,1,-1,-1,0,0,0,0,1,0.34126522
6,2,1,1,124,1,0,1,0,1,-1,-1,-1,0,0,0,0.465851105
6,2,1,1,125,1,0,1,-1,0,1,-1,0,-1,0,0,0.438995976
6,2,1,1,126,1,1,1,-1,-1,0,1,0,0,-1,0,0.431541104
6,2,1,1,127,1,0,0,1,-1,-1,0,0,0,0,-1,0.568107847
6,2,1,1,128,0,0,0,-1,1,-1,-1,0,0,0,0,0.526338453
6,2,1,1,129,0,0,0,0,-1,1,-1,1,0,0,0,0.439440555
6,2,1,1,130,0,0,0,0,0,-1,1,1,1,0,0,0.471741547
6,2,1,1,131,0,1,1,0,0,0,-1,1,1,1,0,0.634593168
6,2,1,1,132,0,0,0,0,0,0,0,-1,1,1,1,0.669561577
6,2,1,1,133,0,1,1,0,0,0,0,1,-1,1,1,0.673689277
6,2,1,1,134,1,1,1,0,0,0,0,-1,1,-1,1,0.678525982
6,2,1,1,135,1,1,1,1,0,0,0,0,-1,1,-1,0.440118672
6,2,1,1,136,1,1,1,1,1,0,0,0,0,-1,1,0.407935851
6,2,1,1,137,0,1,1,1,1,1,0,0,0,0,-1,0.484862102
6,2,1,1,138,1,1,1,0,1,1,1,-1,0,0,0,0.609885426
6,2,1,1,139,0,0,0,1,0,1,1,0,-1,0,0,0.897639317
6,2,1,1,140,0,1,1,0,1,0,1,1,0,-1,0,0.490815366
6,2,1,1,141,1,1,1,0,0,1,0,-1,1,0,-1,0.645881015
6,2,1,1,142,0,1,1,1,0,0,1,0,-1,1,0,0.463608703
6,2,1,1,143,0,0,0,0,1,0,0,-1,0,-1,1,0.494667688
6,2,1,1,144,0,0,0,0,0,1,0,1,-1,0,-1,0.410249546
6,2,1,1,145,0,1,1,0,0,0,1,1,1,-1,0,0.577220214
6,2,1,1,146,0,0,0,0,0,0,0,-1,1,1,-1,0.440187452
6,2,1,1,147,1,1,1,0,0,0,0,1,-1,1,1,0.496973941
6,2,1,1,148,1,1,1,1,0,0,0,0,1,-1,1,0.463744397
6,2,1,1,149,1,1,1,1,1,0,0,0,0,1,-1,0.516381878
6,2,1,1,150,0,1,1,1,1,1,0,0,0,0,1,0.483513244
6,2,1,1,151,1,1,1,0,1,1,1,-1,0,0,0,0.52164168
6,2,1,1,152,0,1,1,1,0,1,1,0,-1,0,0,0.481724611
6,2,1,1,153,1,1,1,0,1,0,1,-1,0,-1,0,0.387160958
6,2,1,1,154,1,1,1,1,0,1,0,0,-1,0,-1,0.393439213
6,2,1,1,155,1,1,1,1,1,0,1,0,0,-1,0,0.521613363
6,2,1,1,156,1,1,1,1,1,1,0,0,0,0,-1,0.611105464
6,2,1,1,157,1,1,1,1,1,1,1,0,0,0,0,0.469678373
6,2,1,1,158,1,1,1,1,1,1,1,0,0,0,0,0.426911758
6,2,1,1,159,1,1,1,1,1,1,1,0,0,0,0,0.41539978
6,2,1,1,160,0,1,1,1,1,1,1,0,0,0,0,0.391089492
7,2,1,1,1,1,0,1,NaN,NaN,NaN,NaN,NaN,NaN,NaN,NaN,0.65084503
7,2,1,1,2,1,0,1,-1,NaN,NaN,NaN,0,NaN,NaN,NaN,0.641494961
7,2,1,1,3,1,0,1,-1,-1,NaN,NaN,0,0,NaN,NaN,0.679992508
7,2,1,1,4,1,0,1,-1,-1,-1,NaN,0,0,0,NaN,0.505900971
7,2,1,1,5,1,0,1,-1,-1,-1,-1,0,0,0,0,0.473205092
7,2,1,1,6,1,0,1,-1,-1,-1,-1,0,0,0,0,0.486498942
7,2,1,1,7,1,0,1,-1,-1,-1,-1,0,0,0,0,0.542996629
7,2,1,1,8,0,0,1,-1,-1,-1,-1,0,0,0,0,0.570755273
7,2,1,1,9,1,0,1,0,-1,-1,-1,1,0,0,0,0.59943464
7,2,1,1,10,1,0,1,-1,0,-1,-1,0,1,0,0,0.523497702
7,2,1,1,11,1,0,1,-1,-1,0,-1,0,0,1,0,0.526334038
7,2,1,1,12,0,0,1,-1,-1,-1,0,0,0,0,1,0.452606775
7,2,1,1,13,1,0,1,0,-1,-1,-1,1,0,0,0,0.607934777
7,2,1,1,14,1,0,1,-1,0,-1,-1,0,1,0,0,0.512440324
7,2,1,1,15,1,0,1,-1,-1,0,-1,0,0,1,0,0.49205813
7,2,1,1,16,1,0,1,-1,-1,-1,0,0,0,0,1,0.480931137
7,2,1,1,17,1,0,1,-1,-1,-1,-1,0,0,0,0,0.602318155
7,2,1,1,18,1,0,1,-1,-1,-1,-1,0,0,0,0,0.501031059
7,2,1,1,19,1,0,1,-1,-1,-1,-1,0,0,0,0,0.450039164
7,2,1,1,20,1,0,1,-1,-1,-1,-1,0,0,0,0,0.556030959
7,2,1,1,21,1,0,1,-1,-1,-1,-1,0,0,0,0,0.53040691
7,2,1,1,22,1,0,1,-1,-1,-1,-1,0,0,0,0,0.535119699
7,2,1,1,23,1,0,1,-1,-1,-1,-1,0,0,0,0,0.522460312
7,2,1,1,24,0,0,1,-1,-1,-1,-1,0,0,0,0,0.469260949
7,2,1,1,25,1,0,1,0,-1,-1,-1,1,0,0,0,0.481995904
7,2,1,1,26,1,0,1,-1,0,-1,-1,0,1,0,0,0.49191633
7,2,1,1,27,1,0,1,-1,-1,0,-1,0,0,1,0,0.53677567
7,2,1,1,28,0,0,1,-1,-1,-1,0,0,0,0,1,0.500323407
7,2,1,1,29,1,0,1,0,-1,-1,-1,1,0,0,0,0.570407612
7,2,1,1,30,1,0,1,-1,0,-1,-1,0,1,0,0,0.612361452
7,2,1,1,31,1,0,1,-1,-1,0,-1,0,0,1,0,0.465920912
7,2,1,1,32,1,0,1,-1,-1,-1,0,0,0,0,1,0.605883436
7,2,1,1,33,1,0,1,-1,-1,-1,-1,0,0,0,0,0.48431352
7,2,1,1,34,1,0,1,-1,-1,-1,-1,0,0,0,0,0.494552895
7,2,1,1,35,1,0,1,-1,-1,-1,-1,0,0,0,0,0.673250403
7,2,1,1,36,1,0,1,-1,-1,-1,-1,0,0,0,0,0.500307972
7,2,1,1,37,1,0,1,-1,-1,-1,-1,0,0,0,0,0.448218189
7,2,1,1,38,0,0,1,-1,-1,-1,-1,0,0,0,0,0.486950392
7,2,1,1,39,0,0,1,0,-1,-1,-1,1,0,0,0,0.448796131
7,2,1,1,40,1,0,1,0,0,-1,-1,1,1,0,0,0.504629582
7,2,1,1,41,1,0,1,-1,0,0,-1,0,1,1,0,0.431402509
7,2,1,1,42,0,0,1,-1,-1,0,0,0,0,1,1,0.461854257
7,2,1,1,43,1,0,1,0,-1,-1,0,1,0,0,1,0.536399705
7,2,1,1,44,0,0,1,-1,0,-1,-1,0,1,0,0,0.526705677
7,2,1,1,45,0,0,1,0,-1,0,-1,1,0,1,0,0.471384864
7,2,1,1,46,1,0,1,0,0,-1,0,1,1,0,1,0.642596559
7,2,1,1,47,1,0,1,-1,0,0,-1,0,1,1,0,0.547160668
7,2,1,1,48,0,0,1,-1,-1,0,0,0,0,1,1,0.519049373
7,2,1,1,49,0,0,1,0,-1,-1,0,1,0,0,1,0.531770387
7,2,1,1,50,0,1,0,0,0,-1,-1,1,1,0,0,0.679380469
7,2,1,1,51,1,0,1,0,0,0,-1,-1,1,1,0,0.629247883
7,2,1,1,52,1,0,1,-1,0,0,0,0,-1,1,1,0.524635824
7,2,1,1,53,1,0,1,-1,-1,0,0,0,0,-1,1,0.554376681
7,2,1,1,54,1,0,1,-1,-1,-1,0,0,0,0,-1,0.518482157
7,2,1,1,55,1,0,1,-1,-1,-1,-1,0,0,0,0,0.562358768
7,2,1,1,56,0,0,0,-1,-1,-1,-1,0,0,0,0,0.500184038
7,2,1,1,57,1,0,0,0,-1,-1,-1,1,0,0,0,0.509387116
7,2,1,1,58,0,0,0,-1,0,-1,-1,0,1,0,0,0.552839941
7,2,1,1,59,1,1,1,0,-1,0,-1,1,0,1,0,0.584867961
7,2,1,1,60,1,1,1,1,0,-1,0,0,1,0,1,0.547834741
7,2,1,1,61,1,1,1,1,1,0,-1,0,0,1,0,0.834552032
7,2,1,1,62,1,1,1,1,1,1,0,0,0,0,1,0.536109575
7,2,1,1,63,1,1,1,1,1,1,1,0,0,0,0,0.510042625
7,2,1,1,64,1,1,1,1,1,1,1,0,0,0,0,0.650326828
7,2,1,1,65,0,1,1,1,1,1,1,0,0,0,0,0.542002618
7,2,1,1,66,0,1,1,0,1,1,1,-1,0,0,0,0.610088794
7,2,1,1,67,1,1,1,0,0,1,1,-1,-1,0,0,0.61423281
7,2,1,1,68,1,1,1,1,0,0,1,0,-1,-1,0,0.513196304
7,2,1,1,69,1,1,1,1,1,0,0,0,0,-1,-1,0.506847844
7,2,1,1,70,1,1,1,1,1,1,0,0,0,0,-1,0.54597039
7,2,1,1,71,0,1,0,1,1,1,1,0,0,0,0,0.550091726
7,2,1,1,72,0,1,0,0,1,1,1,-1,0,0,0,0.657602102
7,2,1,1,73,1,0,1,0,0,1,1,-1,-1,0,0,0.59811472
7,2,1,1,74,1,0,1,-1,0,0,1,0,-1,-1,0,0.595967489
7,2,1,1,75,1,0,1,-1,-1,0,0,0,0,-1,-1,0.641367927
7,2,1,1,76,1,0,1,-1,-1,-1,0,0,0,0,-1,0.622229857
7,2,1,1,77,0,0,1,-1,-1,-1,-1,0,0,0,0,0.631418936
7,2,1,1,78,0,0,1,0,-1,-1,-1,1,0,0,0,0.788583265
7,2,1,1,79,1,1,0,0,0,-1,-1,1,1,0,0,0.648116393
7,2,1,1,80,0,1,0,1,0,0,-1,0,1,1,0,0.568544599
7,2,1,1,81,0,1,0,0,1,0,0,-1,0,1,1,0.568114316
7,2,1,1,82,0,0,1,0,0,1,0,-1,-1,0,1,0.633770838
7,2,1,1,83,1,0,1,0,0,0,1,1,-1,-1,0,0.803355529
7,2,1,1,84,1,0,1,-1,0,0,0,0,1,-1,-1,0.716150817
7,2,1,1,85,1,0,1,-1,-1,0,0,0,0,1,-1,0.598678129
7,2,1,1,86,1,0,1,-1,-1,-1,0,0,0,0,1,0.556955668
7,2,1,1,87,1,0,1,-1,-1,-1,-1,0,0,0,0,0.786564856
7,2,1,1,88,1,0,1,-1,-1,-1,-1,0,0,0,0,0.54663164
7,2,1,1,89,1,0,1,-1,-1,-1,-1,0,0,0,0,0.597944362
7,2,1,1,90,1,0,1,-1,-1,-1,-1,0,0,0,0,0.603522745
7,2,1,1,91,0,0,0,-1,-1,-1,-1,0,0,0,0,0.577484276
7,2,1,1,92,0,0,0,0,-1,-1,-1,1,0,0,0,0.509397038
7,2,1,1,93,1,1,1,0,0,-1,-1,1,1,0,0,0.622145568
7,2,1,1,94,1,1,1,1,0,0,-1,0,1,1,0,0.691884967
7,2,1,1,95,1,1,1,1,1,0,0,0,0,1,1,0.587048892
7,2,1,1,96,1,1,1,1,1,1,0,0,0,0,1,0.53995908
7,2,1,1,97,0,1,1,1,1,1,1,0,0,0,0,0.494422162
7,2,1,1,98,0,1,1,0,1,1,1,-1,0,0,0,0.681192071
7,2,1,1,99,0,0,0,0,0,1,1,-1,-1,0,0,0.858817536
7,2,1,1,100,1,1,1,0,0,0,1,1,-1,-1,0,0.816952522
7,2,1,1,101,1,1,1,1,0,0,0,0,1,-1,-1,0.623515196
7,2,1,1,102,1,1,1,1,1,0,0,0,0,1,-1,0.549607343
7,2,1,1,103,1,1,1,1,1,1,0,0,0,0,1,0.556226221
7,2,1,1,104,1,1,1,1,1,1,1,0,0,0,0,0.504670442
7,2,1,1,105,0,1,1,1,1,1,1,0,0,0,0,0.585309028
7,2,1,1,106,0,1,0,0,1,1,1,-1,0,0,0,0.531302871
7,2,1,1,107,0,0,1,0,0,1,1,-1,-1,0,0,0.82151477
7,2,1,1,108,1,0,1,0,0,0,1,1,-1,-1,0,0.639722946
7,2,1,1,109,1,0,1,-1,0,0,0,0,1,-1,-1,0.489435727
7,2,1,1,110,1,0,1,-1,-1,0,0,0,0,1,-1,0.461378473
7,2,1,1,111,1,0,1,-1,-1,-1,0,0,0,0,1,0.556695377
7,2,1,1,112,0,0,1,-1,-1,-1,-1,0,0,0,0,0.543465434
7,2,1,1,113,1,0,1,0,-1,-1,-1,1,0,0,0,0.528036635
7,2,1,1,114,0,0,1,-1,0,-1,-1,0,1,0,0,0.561363532
7,2,1,1,115,1,0,1,0,-1,0,-1,1,0,1,0,0.548935043
7,2,1,1,116,1,0,1,-1,0,-1,0,0,1,0,1,0.504073245
7,2,1,1,117,1,0,1,-1,-1,0,-1,0,0,1,0,0.555293776
7,2,1,1,118,1,0,1,-1,-1,-1,0,0,0,0,1,0.525679196
7,2,1,1,119,1,0,1,-1,-1,-1,-1,0,0,0,0,0.698378092
7,2,1,1,120,1,0,1,-1,-1,-1,-1,0,0,0,0,0.545807107
7,2,1,1,121,1,0,1,-1,-1,-1,-1,0,0,0,0,0.528144399
7,2,1,1,122,1,0,1,-1,-1,-1,-1,0,0,0,0,0.579793452
7,2,1,1,123,0,0,1,-1,-1,-1,-1,0,0,0,0,0.485793689
7,2,1,1,124,0,0,1,0,-1,-1,-1,1,0,0,0,0.67732861
7,2,1,1,125,1,0,1,0,0,-1,-1,1,1,0,0,0.568554992
7,2,1,1,126,0,0,0,-1,0,0,-1,0,1,1,0,0.643698289
7,2,1,1,127,0,0,0,0,-1,0,0,1,0,1,1,0.522655521
7,2,1,1,128,1,1,1,0,0,-1,0,1,1,0,1,0.860174708
7,2,1,1,129,1,1,1,1,0,0,-1,0,1,1,0,0.585618079
7,2,1,1,130,1,1,1,1,1,0,0,0,0,1,1,0.502708098
7,2,1,1,131,0,1,1,1,1,1,0,0,0,0,1,0.528392626
7,2,1,1,132,0,0,0,0,1,1,1,-1,0,0,0,0.658283995
7,2,1,1,133,0,1,1,0,0,1,1,1,-1,0,0,0.710094526
7,2,1,1,134,0,0,0,0,0,0,1,-1,1,-1,0,0.720554518
7,2,1,1,135,1,1,1,0,0,0,0,1,-1,1,-1,0.924764408
7,2,1,1,136,0,0,0,1,0,0,0,0,1,-1,1,0.817791956
7,2,1,1,137,0,0,0,0,1,0,0,1,0,1,-1,0.664972294
7,2,1,1,138,0,1,1,0,0,1,0,1,1,0,1,0.593155962
7,2,1,1,139,1,0,0,0,0,0,1,-1,1,1,0,0.630003714
7,2,1,1,140,1,0,0,-1,0,0,0,0,-1,1,1,0.555127966
7,2,1,1,141,0,0,0,-1,-1,0,0,0,0,-1,1,0.490153658
7,2,1,1,142,0,0,0,0,-1,-1,0,1,0,0,-1,0.456670432
7,2,1,1,143,1,0,0,0,0,-1,-1,1,1,0,0,0.561130718
7,2,1,1,144,0,0,0,-1,0,0,-1,0,1,1,0,0.521418233
7,2,1,1,145,0,0,0,0,-1,0,0,1,0,1,1,0.688546865
7,2,1,1,146,0,0,0,0,0,-1,0,1,1,0,1,0.711753737
7,2,1,1,147,0,0,0,0,0,0,-1,1,1,1,0,0.494188895
7,2,1,1,148,1,1,1,0,0,0,0,1,1,1,1,0.876379198
7,2,1,1,149,1,1,1,1,0,0,0,0,1,1,1,0.517048224
7,2,1,1,150,0,1,1,1,1,0,0,0,0,1,1,0.49180121
7,2,1,1,151,1,1,1,0,1,1,0,-1,0,0,1,0.486956434
7,2,1,1,152,1,1,1,1,0,1,1,0,-1,0,0,0.557968688
7,2,1,1,153,1,1,1,1,1,0,1,0,0,-1,0,0.603171207
7,2,1,1,154,1,1,1,1,1,1,0,0,0,0,-1,0.527779843
7,2,1,1,155,1,1,1,1,1,1,1,0,0,0,0,0.695798115
7,2,1,1,156,0,1,1,1,1,1,1,0,0,0,0,0.535058229
7,2,1,1,157,1,1,1,0,1,1,1,-1,0,0,0,0.464646565
7,2,1,1,158,1,1,1,1,0,1,1,0,-1,0,0,0.459975165
7,2,1,1,159,1,1,1,1,1,0,1,0,0,-1,0,0.536753894
7,2,1,1,160,1,1,1,1,1,1,0,0,0,0,-1,0.753296437
8,2,1,1,1,0,0,0,NaN,NaN,NaN,NaN,NaN,NaN,NaN,NaN,0.927658553
8,2,1,1,2,1,1,1,0,NaN,NaN,NaN,1,NaN,NaN,NaN,0.966565289
8,2,1,1,3,1,1,1,1,0,NaN,NaN,0,1,NaN,NaN,0.798999417
8,2,1,1,4,1,1,1,1,1,0,NaN,0,0,1,NaN,0.566955085
8,2,1,1,5,1,1,1,1,1,1,0,0,0,0,1,0.747594203
8,2,1,1,6,1,1,1,1,1,1,1,0,0,0,0,0.889616255
8,2,1,1,7,1,1,1,1,1,1,1,0,0,0,0,0.695972051
8,2,1,1,8,1,1,1,1,1,1,1,0,0,0,0,0.744312304
8,2,1,1,9,1,1,1,1,1,1,1,0,0,0,0,0.723115105
8,2,1,1,10,1,1,1,1,1,1,1,0,0,0,0,0.657430446
8,2,1,1,11,1,1,1,1,1,1,1,0,0,0,0,0.742615456
8,2,1,1,12,1,1,1,1,1,1,1,0,0,0,0,0.758452494
8,2,1,1,13,1,1,1,1,1,1,1,0,0,0,0,0.758560371
8,2,1,1,14,1,1,1,1,1,1,1,0,0,0,0,0.730973364
8,2,1,1,15,1,1,1,1,1,1,1,0,0,0,0,0.706835027
8,2,1,1,16,0,1,1,1,1,1,1,0,0,0,0,0.777488428
8,2,1,1,17,0,0,0,0,1,1,1,-1,0,0,0,0.791850315
8,2,1,1,18,1,1,1,0,0,1,1,1,-1,0,0,0.719779191
8,2,1,1,19,1,1,1,1,0,0,1,0,1,-1,0,0.612748797
8,2,1,1,20,1,1,1,1,1,0,0,0,0,1,-1,0.728321064
8,2,1,1,21,0,1,1,1,1,1,0,0,0,0,1,0.714212476
8,2,1,1,22,1,1,1,0,1,1,1,-1,0,0,0,0.824619667
8,2,1,1,23,0,1,1,1,0,1,1,0,-1,0,0,0.86497608
8,2,1,1,24,1,0,0,0,1,0,1,-1,0,-1,0,0.835589793
8,2,1,1,25,0,0,0,-1,0,1,0,0,-1,0,-1,0.605818314
8,2,1,1,26,0,1,1,0,-1,0,1,1,0,-1,0,0.666004942
8,2,1,1,27,1,0,0,0,0,-1,0,-1,1,0,-1,0.687103176
8,2,1,1,28,0,0,0,-1,0,0,-1,0,-1,1,0,0.630308697
8,2,1,1,29,0,0,0,0,-1,0,0,1,0,-1,1,0.712465751
8,2,1,1,30,1,1,1,0,0,-1,0,1,1,0,-1,0.697230975
8,2,1,1,31,1,1,1,1,0,0,-1,0,1,1,0,0.560825146
8,2,1,1,32,1,1,1,1,1,0,0,0,0,1,1,0.659363844
8,2,1,1,33,1,1,1,1,1,1,0,0,0,0,1,0.631837917
8,2,1,1,34,1,1,1,1,1,1,1,0,0,0,0,0.60827948
8,2,1,1,35,0,1,1,1,1,1,1,0,0,0,0,0.58167724
8,2,1,1,36,0,1,1,0,1,1,1,-1,0,0,0,0.651445358
8,2,1,1,37,0,0,0,0,0,1,1,-1,-1,0,0,0.723101704
8,2,1,1,38,1,1,1,0,0,0,1,1,-1,-1,0,0.784060371
8,2,1,1,39,1,1,1,1,0,0,0,0,1,-1,-1,0.594498776
8,2,1,1,40,1,1,1,1,1,0,0,0,0,1,-1,0.644020469
8,2,1,1,41,1,1,1,1,1,1,0,0,0,0,1,0.60278002
8,2,1,1,42,0,1,1,1,1,1,1,0,0,0,0,0.568124298
8,2,1,1,43,1,0,0,0,1,1,1,-1,0,0,0,0.627606676
8,2,1,1,44,0,0,0,-1,0,1,1,0,-1,0,0,0.562196658
8,2,1,1,45,0,1,1,0,-1,0,1,1,0,-1,0,0.612620036
8,2,1,1,46,0,0,0,0,0,-1,0,-1,1,0,-1,0.600629236
8,2,1,1,47,1,1,1,0,0,0,-1,1,-1,1,0,0.75395794
8,2,1,1,48,1,1,1,1,0,0,0,0,1,-1,1,0.582118037
8,2,1,1,49,1,1,1,1,1,0,0,0,0,1,-1,0.639993056
8,2,1,1,50,1,1,1,1,1,1,0,0,0,0,1,0.742490336
8,2,1,1,51,1,1,1,1,1,1,1,0,0,0,0,0.773098037
8,2,1,1,52,1,1,1,1,1,1,1,0,0,0,0,0.616973827
8,2,1,1,53,1,1,1,1,1,1,1,0,0,0,0,0.586880626
8,2,1,1,54,1,1,1,1,1,1,1,0,0,0,0,0.899381407
8,2,1,1,55,1,1,1,1,1,1,1,0,0,0,0,0.61379241
8,2,1,1,56,0,1,0,1,1,1,1,0,0,0,0,0.638389174
8,2,1,1,57,0,1,0,0,1,1,1,-1,0,0,0,0.64581134
8,2,1,1,58,1,0,1,0,0,1,1,-1,-1,0,0,0.759510375
8,2,1,1,59,0,0,1,-1,0,0,1,0,-1,-1,0,0.714313138
8,2,1,1,60,1,1,0,0,-1,0,0,1,0,-1,-1,0.685851971
8,2,1,1,61,0,1,0,1,0,-1,0,0,1,0,-1,0.784543254
8,2,1,1,62,0,1,0,0,1,0,-1,-1,0,1,0,0.662857383
8,2,1,1,63,0,0,1,0,0,1,0,-1,-1,0,1,0.83807927
8,2,1,1,64,1,0,1,0,0,0,1,1,-1,-1,0,0.798293402
8,2,1,1,65,0,1,0,-1,0,0,0,0,1,-1,-1,0.867187297
8,2,1,1,66,1,0,1,0,-1,0,0,-1,0,1,-1,0.713649661
8,2,1,1,67,1,0,1,-1,0,-1,0,0,-1,0,1,0.574626573
8,2,1,1,68,1,0,1,-1,-1,0,-1,0,0,-1,0,0.604801407
8,2,1,1,69,0,0,1,-1,-1,-1,0,0,0,0,-1,0.785237331
8,2,1,1,70,0,1,0,0,-1,-1,-1,1,0,0,0,1.000816885
8,2,1,1,71,0,0,0,0,0,-1,-1,-1,1,0,0,0.646970567
8,2,1,1,72,1,1,1,0,0,0,-1,1,-1,1,0,0.926135838
8,2,1,1,73,0,1,1,1,0,0,0,0,1,-1,1,0.655828504
8,2,1,1,74,1,1,1,0,1,0,0,-1,0,1,-1,0.617611695
8,2,1,1,75,0,0,0,1,0,1,0,0,-1,0,1,0.529168898
8,2,1,1,76,1,1,1,0,1,0,1,1,0,-1,0,0.63916836
8,2,1,1,77,1,1,1,1,0,1,0,0,1,0,-1,0.59808312
8,2,1,1,78,1,1,1,1,1,0,1,0,0,1,0,0.868105257
8,2,1,1,79,1,1,1,1,1,1,0,0,0,0,1,0.932182008
8,2,1,1,80,0,1,1,1,1,1,1,0,0,0,0,0.886938817
8,2,1,1,81,0,1,1,0,1,1,1,-1,0,0,0,0.893794373
8,2,1,1,82,0,0,0,0,0,1,1,-1,-1,0,0,0.594377025
8,2,1,1,83,1,1,1,0,0,0,1,1,-1,-1,0,0.645995958
8,2,1,1,84,1,1,1,1,0,0,0,0,1,-1,-1,0.629382209
8,2,1,1,85,1,1,1,1,1,0,0,0,0,1,-1,0.764070758
8,2,1,1,86,1,1,1,1,1,1,0,0,0,0,1,0.726972217
8,2,1,1,87,1,1,1,1,1,1,1,0,0,0,0,0.661358272
8,2,1,1,88,1,1,1,1,1,1,1,0,0,0,0,0.653397916
8,2,1,1,89,1,1,1,1,1,1,1,0,0,0,0,0.696625813
8,2,1,1,90,1,1,1,1,1,1,1,0,0,0,0,0.671187261
8,2,1,1,91,0,1,0,1,1,1,1,0,0,0,0,0.78227731
8,2,1,1,92,0,0,0,0,1,1,1,-1,0,0,0,0
8,2,1,1,93,1,0,1,NaN,0,1,1,NaN,-1,0,0,0.801770082
8,2,1,1,94,0,1,0,-1,NaN,0,1,0,NaN,-1,0,0.85081176
8,2,1,1,95,1,0,1,0,-1,NaN,0,-1,0,NaN,-1,0.677311157
8,2,1,1,96,1,0,1,-1,0,-1,NaN,0,-1,0,NaN,0.635954376
8,2,1,1,97,1,0,1,-1,-1,0,-1,0,0,-1,0,0.54202879
8,2,1,1,98,0,0,1,-1,-1,-1,0,0,0,0,-1,0.608372643
8,2,1,1,99,0,1,0,0,-1,-1,-1,1,0,0,0,0.621148406
8,2,1,1,100,0,0,1,0,0,-1,-1,-1,1,0,0,0.854340151
8,2,1,1,101,1,1,0,0,0,0,-1,1,-1,1,0,0.63855158
8,2,1,1,102,0,1,0,1,0,0,0,0,1,-1,1,0.797319649
8,2,1,1,103,0,1,0,0,1,0,0,-1,0,1,-1,0.655458102
8,2,1,1,104,1,0,1,0,0,1,0,-1,-1,0,1,0.736307172
8,2,1,1,105,1,0,1,-1,0,0,1,0,-1,-1,0,0.65129124
8,2,1,1,106,0,0,0,-1,-1,0,0,0,0,-1,-1,0.59375971
8,2,1,1,107,1,1,1,0,-1,-1,0,1,0,0,-1,0.617080188
8,2,1,1,108,1,1,1,1,0,-1,-1,0,1,0,0,0.655579074
8,2,1,1,109,0,1,1,1,1,0,-1,0,0,1,0,0.594166864
8,2,1,1,110,1,1,1,0,1,1,0,-1,0,0,1,0.775369964
8,2,1,1,111,1,1,1,1,0,1,1,0,-1,0,0,0.562654647
8,2,1,1,112,1,1,1,1,1,0,1,0,0,-1,0,0.638345955
8,2,1,1,113,0,1,1,1,1,1,0,0,0,0,-1,0.636677004
8,2,1,1,114,0,0,0,0,1,1,1,-1,0,0,0,0.574595306
8,2,1,1,115,0,1,1,0,0,1,1,1,-1,0,0,0.585360504
8,2,1,1,116,1,0,0,0,0,0,1,-1,1,-1,0,0.76824147
8,2,1,1,117,0,0,0,-1,0,0,0,0,-1,1,-1,1.054631956
8,2,1,1,118,1,1,1,0,-1,0,0,1,0,-1,1,0.784721912
8,2,1,1,119,1,1,1,1,0,-1,0,0,1,0,-1,0.667588409
8,2,1,1,120,1,1,1,1,1,0,-1,0,0,1,0,0.653750383
8,2,1,1,121,1,1,1,1,1,1,0,0,0,0,1,0.664526337
8,2,1,1,122,1,1,1,1,1,1,1,0,0,0,0,0.620306286
8,2,1,1,123,1,1,1,1,1,1,1,0,0,0,0,0.709710519
8,2,1,1,124,1,1,1,1,1,1,1,0,0,0,0,0.715467901
8,2,1,1,125,0,1,1,1,1,1,1,0,0,0,0,0.62398156
8,2,1,1,126,1,0,1,0,1,1,1,-1,0,0,0,1.379961438
8,2,1,1,127,1,0,1,-1,0,1,1,0,-1,0,0,0.649292408
8,2,1,1,128,1,0,1,-1,-1,0,1,0,0,-1,0,0.649889237
8,2,1,1,129,1,0,1,-1,-1,-1,0,0,0,0,-1,0.555525705
8,2,1,1,130,1,0,1,-1,-1,-1,-1,0,0,0,0,0.614236469
8,2,1,1,131,0,0,1,-1,-1,-1,-1,0,0,0,0,0.628619769
8,2,1,1,132,1,0,1,0,-1,-1,-1,1,0,0,0,0.738999329
8,2,1,1,133,0,0,1,-1,0,-1,-1,0,1,0,0,0.594273882
8,2,1,1,134,0,1,0,0,-1,0,-1,1,0,1,0,0.905424704
8,2,1,1,135,0,1,0,0,0,-1,0,-1,1,0,1,1.00876336
8,2,1,1,136,1,0,1,0,0,0,-1,-1,-1,1,0,0.794647686
8,2,1,1,137,1,0,1,-1,0,0,0,0,-1,-1,1,0.638835276
8,2,1,1,138,1,0,1,-1,-1,0,0,0,0,-1,-1,0.701132727
8,2,1,1,139,0,0,1,-1,-1,-1,0,0,0,0,-1,0.646960412
8,2,1,1,140,1,1,0,0,-1,-1,-1,1,0,0,0,0.601978955
8,2,1,1,141,0,1,0,1,0,-1,-1,0,1,0,0,0.575044338
8,2,1,1,142,0,1,0,0,1,0,-1,-1,0,1,0,0.802790312
8,2,1,1,143,0,0,1,0,0,1,0,-1,-1,0,1,0.579468189
8,2,1,1,144,0,1,0,0,0,0,1,1,-1,-1,0,0.632530358
8,2,1,1,145,1,0,1,0,0,0,0,-1,1,-1,-1,0.887122673
8,2,1,1,146,1,0,1,-1,0,0,0,0,-1,1,-1,0.660134768
8,2,1,1,147,1,0,1,-1,-1,0,0,0,0,-1,1,0.677761166
8,2,1,1,148,1,0,1,-1,-1,-1,0,0,0,0,-1,0.640650472
8,2,1,1,149,1,0,1,-1,-1,-1,-1,0,0,0,0,0.61048457
8,2,1,1,150,1,0,1,-1,-1,-1,-1,0,0,0,0,0.685282564
8,2,1,1,151,1,0,1,-1,-1,-1,-1,0,0,0,0,0.561818809
8,2,1,1,152,1,0,1,-1,-1,-1,-1,0,0,0,0,0.728086474
8,2,1,1,153,1,0,1,-1,-1,-1,-1,0,0,0,0,0.899766786
8,2,1,1,154,1,0,1,-1,-1,-1,-1,0,0,0,0,0.563694917
8,2,1,1,155,1,0,1,-1,-1,-1,-1,0,0,0,0,0.66457525
8,2,1,1,156,1,0,1,-1,-1,-1,-1,0,0,0,0,0.689842193
8,2,1,1,157,1,0,1,-1,-1,-1,-1,0,0,0,0,0.931380304
8,2,1,1,158,1,0,1,-1,-1,-1,-1,0,0,0,0,0.59685845
8,2,1,1,159,1,0,1,-1,-1,-1,-1,0,0,0,0,0.554618707
8,2,1,1,160,1,0,1,-1,-1,-1,-1,0,0,0,0,0.62514655
9,2,1,1,1,1,1,1,NaN,NaN,NaN,NaN,NaN,NaN,NaN,NaN,0.967211292
9,2,1,1,2,0,1,1,1,NaN,NaN,NaN,0,NaN,NaN,NaN,0.592923672
9,2,1,1,3,1,1,1,0,1,NaN,NaN,-1,0,NaN,NaN,0.528230007
9,2,1,1,4,1,1,1,1,0,1,NaN,0,-1,0,NaN,0.496403172
9,2,1,1,5,1,1,1,1,1,0,1,0,0,-1,0,0.661627109
9,2,1,1,6,1,1,1,1,1,1,0,0,0,0,-1,0.557220057
9,2,1,1,7,0,1,1,1,1,1,1,0,0,0,0,0.54776709
9,2,1,1,8,1,1,1,0,1,1,1,-1,0,0,0,0.527549472
9,2,1,1,9,1,1,1,1,0,1,1,0,-1,0,0,0.517995152
9,2,1,1,10,1,1,1,1,1,0,1,0,0,-1,0,0.594112308
9,2,1,1,11,1,1,1,1,1,1,0,0,0,0,-1,0.912024766
9,2,1,1,12,1,1,1,1,1,1,1,0,0,0,0,0.570925684
9,2,1,1,13,1,1,1,1,1,1,1,0,0,0,0,0.509459399
9,2,1,1,14,1,1,1,1,1,1,1,0,0,0,0,0.599219405
9,2,1,1,15,1,1,1,1,1,1,1,0,0,0,0,0.644168829
9,2,1,1,16,1,1,1,1,1,1,1,0,0,0,0,0.708951404
9,2,1,1,17,1,1,1,1,1,1,1,0,0,0,0,0.581389154
9,2,1,1,18,0,1,1,1,1,1,1,0,0,0,0,0.546473406
9,2,1,1,19,1,1,1,0,1,1,1,-1,0,0,0,0.52744246
9,2,1,1,20,0,1,1,1,0,1,1,0,-1,0,0,0.636528216
9,2,1,1,21,1,1,1,0,1,0,1,-1,0,-1,0,0.503164648
9,2,1,1,22,1,1,1,1,0,1,0,0,-1,0,-1,0.593275227
9,2,1,1,23,1,1,1,1,1,0,1,0,0,-1,0,0.479395101
9,2,1,1,24,1,1,1,1,1,1,0,0,0,0,-1,0.611752405
9,2,1,1,25,0,1,1,1,1,1,1,0,0,0,0,0.721533963
9,2,1,1,26,1,1,1,0,1,1,1,-1,0,0,0,0.510535073
9,2,1,1,27,1,1,1,1,0,1,1,0,-1,0,0,0.523444203
9,2,1,1,28,1,1,1,1,1,0,1,0,0,-1,0,0.476873134
9,2,1,1,29,0,1,1,1,1,1,0,0,0,0,-1,0.531670683
9,2,1,1,30,1,1,1,0,1,1,1,-1,0,0,0,0.598947966
9,2,1,1,31,1,1,1,1,0,1,1,0,-1,0,0,0.498579148
9,2,1,1,32,1,1,1,1,1,0,1,0,0,-1,0,0.559569638
9,2,1,1,33,1,1,1,1,1,1,0,0,0,0,-1,0.558846722
9,2,1,1,34,1,1,1,1,1,1,1,0,0,0,0,0.61353247
9,2,1,1,35,1,1,1,1,1,1,1,0,0,0,0,0.537693567
9,2,1,1,36,0,1,1,1,1,1,1,0,0,0,0,0.530981547
9,2,1,1,37,1,1,1,0,1,1,1,-1,0,0,0,0.535133646
9,2,1,1,38,1,1,1,1,0,1,1,0,-1,0,0,0.615358931
9,2,1,1,39,1,1,1,1,1,0,1,0,0,-1,0,0.513494553
9,2,1,1,40,1,1,1,1,1,1,0,0,0,0,-1,0.519807409
9,2,1,1,41,1,1,1,1,1,1,1,0,0,0,0,0.57571686
9,2,1,1,42,1,1,1,1,1,1,1,0,0,0,0,0.571721591
9,2,1,1,43,1,1,1,1,1,1,1,0,0,0,0,0.547511328
9,2,1,1,44,1,1,1,1,1,1,1,0,0,0,0,0.581772181
9,2,1,1,45,1,1,1,1,1,1,1,0,0,0,0,0.590685355
9,2,1,1,46,1,1,1,1,1,1,1,0,0,0,0,0.532997992
9,2,1,1,47,1,1,1,1,1,1,1,0,0,0,0,0.508816426
9,2,1,1,48,1,1,1,1,1,1,1,0,0,0,0,0.585969413
9,2,1,1,49,1,1,1,1,1,1,1,0,0,0,0,0.622893964
9,2,1,1,50,1,1,1,1,1,1,1,0,0,0,0,0.518920903
9,2,1,1,51,1,1,1,1,1,1,1,0,0,0,0,0.552360083
9,2,1,1,52,1,1,1,1,1,1,1,0,0,0,0,0.603667618
9,2,1,1,53,1,1,1,1,1,1,1,0,0,0,0,0.555502541
9,2,1,1,54,1,1,1,1,1,1,1,0,0,0,0,0.604520839
9,2,1,1,55,1,1,1,1,1,1,1,0,0,0,0,0.601611965
9,2,1,1,56,0,1,0,1,1,1,1,0,0,0,0,0.565200643
9,2,1,1,57,0,1,0,0,1,1,1,-1,0,0,0,0.604138513
9,2,1,1,58,0,1,0,0,0,1,1,-1,-1,0,0,0.575831211
9,2,1,1,59,1,1,0,0,0,0,1,-1,-1,-1,0,0.528904662
9,2,1,1,60,0,1,0,1,0,0,0,0,-1,-1,-1,0.529087721
9,2,1,1,61,0,1,0,0,1,0,0,-1,0,-1,-1,0.574035568
9,2,1,1,62,0,1,0,0,0,1,0,-1,-1,0,-1,0.516401761
9,2,1,1,63,1,0,1,0,0,0,1,-1,-1,-1,0,0.877319582
9,2,1,1,64,1,0,1,-1,0,0,0,0,-1,-1,-1,0.573364066
9,2,1,1,65,1,0,1,-1,-1,0,0,0,0,-1,-1,0.576066493
9,2,1,1,66,1,0,1,-1,-1,-1,0,0,0,0,-1,0.519467028
9,2,1,1,67,1,0,1,-1,-1,-1,-1,0,0,0,0,0.527486643
9,2,1,1,68,0,0,1,-1,-1,-1,-1,0,0,0,0,0.42926491
9,2,1,1,69,1,0,1,0,-1,-1,-1,1,0,0,0,0.700173053
9,2,1,1,70,0,0,1,-1,0,-1,-1,0,1,0,0,0.516582524
9,2,1,1,71,1,0,0,0,-1,0,-1,1,0,1,0,0.555548175
9,2,1,1,72,0,0,0,-1,0,-1,0,0,1,0,1,0.657673104
9,2,1,1,73,0,0,0,0,-1,0,-1,1,0,1,0,0.647682
9,2,1,1,74,0,0,0,0,0,-1,0,1,1,0,1,0.477702927
9,2,1,1,75,1,1,1,0,0,0,-1,1,1,1,0,0.597145284
9,2,1,1,76,1,1,1,1,0,0,0,0,1,1,1,0.483418269
9,2,1,1,77,1,1,1,1,1,0,0,0,0,1,1,0.67782586
9,2,1,1,78,1,1,1,1,1,1,0,0,0,0,1,0.585860381
9,2,1,1,79,0,1,1,1,1,1,1,0,0,0,0,0.692581218
9,2,1,1,80,1,1,1,0,1,1,1,-1,0,0,0,0.599514622
9,2,1,1,81,1,1,1,1,0,1,1,0,-1,0,0,0.678035963
9,2,1,1,82,1,1,1,1,1,0,1,0,0,-1,0,0.645522216
9,2,1,1,83,0,1,1,1,1,1,0,0,0,0,-1,0.582276005
9,2,1,1,84,0,1,1,0,1,1,1,-1,0,0,0,0.544800191
9,2,1,1,85,1,1,1,0,0,1,1,-1,-1,0,0,0.65977272
9,2,1,1,86,1,1,1,1,0,0,1,0,-1,-1,0,0.895321971
9,2,1,1,87,0,1,1,1,1,0,0,0,0,-1,-1,0.593997747
9,2,1,1,88,1,1,1,0,1,1,0,-1,0,0,-1,0.581160047
9,2,1,1,89,1,1,1,1,0,1,1,0,-1,0,0,0.571207668
9,2,1,1,90,1,1,1,1,1,0,1,0,0,-1,0,0.544517195
9,2,1,1,91,0,1,0,1,1,1,0,0,0,0,-1,0.599702104
9,2,1,1,92,0,1,0,0,1,1,1,-1,0,0,0,0.567240533
9,2,1,1,93,0,1,0,0,0,1,1,-1,-1,0,0,0.549473943
9,2,1,1,94,1,0,1,0,0,0,1,-1,-1,-1,0,1.037713703
9,2,1,1,95,1,0,1,-1,0,0,0,0,-1,-1,-1,0.667918539
9,2,1,1,96,1,0,1,-1,-1,0,0,0,0,-1,-1,0.57413307
9,2,1,1,97,0,0,1,-1,-1,-1,0,0,0,0,-1,0.573682482
9,2,1,1,98,1,0,1,0,-1,-1,-1,1,0,0,0,0.505504747
9,2,1,1,99,1,0,1,-1,0,-1,-1,0,1,0,0,0.534308208
9,2,1,1,100,1,0,1,-1,-1,0,-1,0,0,1,0,0.589925877
9,2,1,1,101,0,0,1,-1,-1,-1,0,0,0,0,1,0.586418234
9,2,1,1,102,1,0,1,0,-1,-1,-1,1,0,0,0,0.490526037
9,2,1,1,103,1,0,1,-1,0,-1,-1,0,1,0,0,0.581351832
9,2,1,1,104,1,0,1,-1,-1,0,-1,0,0,1,0,0.556152112
9,2,1,1,105,0,0,1,-1,-1,-1,0,0,0,0,1,0.4721526
9,2,1,1,106,1,0,0,0,-1,-1,-1,1,0,0,0,0.716379553
9,2,1,1,107,0,0,0,-1,0,-1,-1,0,1,0,0,0.581587934
9,2,1,1,108,0,0,0,0,-1,0,-1,1,0,1,0,0.48997207
9,2,1,1,109,0,0,0,0,0,-1,0,1,1,0,1,0.494832915
9,2,1,1,110,1,1,1,0,0,0,-1,1,1,1,0,0.536128677
9,2,1,1,111,0,1,1,1,0,0,0,0,1,1,1,0.562523813
9,2,1,1,112,1,1,1,0,1,0,0,-1,0,1,1,0.494246058
9,2,1,1,113,1,1,1,1,0,1,0,0,-1,0,1,0.561790374
9,2,1,1,114,0,1,1,1,1,0,1,0,0,-1,0,0.67444778
9,2,1,1,115,0,1,1,0,1,1,0,-1,0,0,-1,0.555982022
9,2,1,1,116,1,1,1,0,0,1,1,-1,-1,0,0,0.757747638
9,2,1,1,117,1,1,1,1,0,0,1,0,-1,-1,0,0.606334257
9,2,1,1,118,1,1,1,1,1,0,0,0,0,-1,-1,0.607133681
9,2,1,1,119,1,1,1,1,1,1,0,0,0,0,-1,0.524221809
9,2,1,1,120,1,1,1,1,1,1,1,0,0,0,0,0.521253288
9,2,1,1,121,1,1,1,1,1,1,1,0,0,0,0,0.548754277
9,2,1,1,122,1,1,1,1,1,1,1,0,0,0,0,0.614268708
9,2,1,1,123,0,1,1,1,1,1,1,0,0,0,0,0.577218136
9,2,1,1,124,1,1,1,0,1,1,1,-1,0,0,0,0.69714751
9,2,1,1,125,0,1,1,1,0,1,1,0,-1,0,0,0.55410326
9,2,1,1,126,0,1,0,0,1,0,1,-1,0,-1,0,0.618883174
9,2,1,1,127,0,1,0,0,0,1,0,-1,-1,0,-1,0.574683691
9,2,1,1,128,1,0,1,0,0,0,1,-1,-1,-1,0,0.575271906
9,2,1,1,129,1,0,1,-1,0,0,0,0,-1,-1,-1,0.498001058
9,2,1,1,130,1,0,1,-1,-1,0,0,0,0,-1,-1,0.660522276
9,2,1,1,131,1,0,1,-1,-1,-1,0,0,0,0,-1,0.553457531
9,2,1,1,132,1,0,1,-1,-1,-1,-1,0,0,0,0,0.551942524
9,2,1,1,133,1,0,1,-1,-1,-1,-1,0,0,0,0,0.600856379
9,2,1,1,134,1,0,1,-1,-1,-1,-1,0,0,0,0,0.622075108
9,2,1,1,135,0,0,1,-1,-1,-1,-1,0,0,0,0,0.528583253
9,2,1,1,136,1,0,1,0,-1,-1,-1,1,0,0,0,0.576228536
9,2,1,1,137,1,0,1,-1,0,-1,-1,0,1,0,0,0.533328074
9,2,1,1,138,1,0,1,-1,-1,0,-1,0,0,1,0,0.493050204
9,2,1,1,139,1,0,1,-1,-1,-1,0,0,0,0,1,0.515466737
9,2,1,1,140,1,0,1,-1,-1,-1,-1,0,0,0,0,0.574264958
9,2,1,1,141,0,0,1,-1,-1,-1,-1,0,0,0,0,0.564747143
9,2,1,1,142,1,0,1,0,-1,-1,-1,1,0,0,0,0.506654893
9,2,1,1,143,0,0,1,-1,0,-1,-1,0,1,0,0,0.646087082
9,2,1,1,144,1,0,1,0,-1,0,-1,1,0,1,0,0.53469277
9,2,1,1,145,1,0,1,-1,0,-1,0,0,1,0,1,0.500706212
9,2,1,1,146,1,0,1,-1,-1,0,-1,0,0,1,0,0.535015602
9,2,1,1,147,0,0,1,-1,-1,-1,0,0,0,0,1,0.548225873
9,2,1,1,148,1,0,1,0,-1,-1,-1,1,0,0,0,0.586817248
9,2,1,1,149,1,0,1,-1,0,-1,-1,0,1,0,0,0.550998739
9,2,1,1,150,1,0,1,-1,-1,0,-1,0,0,1,0,0.501131683
9,2,1,1,151,1,0,1,-1,-1,-1,0,0,0,0,1,0.59055171
9,2,1,1,152,1,0,1,-1,-1,-1,-1,0,0,0,0,0.520902272
9,2,1,1,153,1,0,1,-1,-1,-1,-1,0,0,0,0,0.553269432
9,2,1,1,154,1,0,1,-1,-1,-1,-1,0,0,0,0,0.528767029
9,2,1,1,155,1,0,1,-1,-1,-1,-1,0,0,0,0,0.610932065
9,2,1,1,156,1,0,1,-1,-1,-1,-1,0,0,0,0,0.516308933
9,2,1,1,157,0,0,1,-1,-1,-1,-1,0,0,0,0,0.62281686
9,2,1,1,158,0,0,1,0,-1,-1,-1,1,0,0,0,0.529641728
9,2,1,1,159,1,0,1,0,0,-1,-1,1,1,0,0,0.502354964
9,2,1,1,160,0,0,1,-1,0,0,-1,0,1,1,0,0.706523345
10,2,1,1,1,0,0,0,NaN,NaN,NaN,NaN,NaN,NaN,NaN,NaN,1.012668648
10,2,1,1,2,0,0,0,0,NaN,NaN,NaN,1,NaN,NaN,NaN,0.561034422
10,2,1,1,3,0,0,0,0,0,NaN,NaN,1,1,NaN,NaN,0.547922872
10,2,1,1,4,1,1,1,0,0,0,NaN,1,1,1,NaN,0.832931939
10,2,1,1,5,1,1,1,1,0,0,0,0,1,1,1,0.520477417
10,2,1,1,6,1,1,1,1,1,0,0,0,0,1,1,0.849085364
10,2,1,1,7,1,1,1,1,1,1,0,0,0,0,1,0.755551731
10,2,1,1,8,1,1,1,1,1,1,1,0,0,0,0,0.464216525
10,2,1,1,9,0,0,0,1,1,1,1,0,0,0,0,0.875088588
10,2,1,1,10,1,1,1,0,1,1,1,1,0,0,0,1.060791864
10,2,1,1,11,1,1,1,1,0,1,1,0,1,0,0,0.625648619
10,2,1,1,12,1,1,1,1,1,0,1,0,0,1,0,0.602416292
10,2,1,1,13,0,1,1,1,1,1,0,0,0,0,1,0.480234494
10,2,1,1,14,0,0,0,0,1,1,1,-1,0,0,0,0.545371703
10,2,1,1,15,0,1,1,0,0,1,1,1,-1,0,0,0.726580949
10,2,1,1,16,0,0,0,0,0,0,1,-1,1,-1,0,0.729013478
10,2,1,1,17,1,1,1,0,0,0,0,1,-1,1,-1,0.756436087
10,2,1,1,18,1,1,1,1,0,0,0,0,1,-1,1,0.624355219
10,2,1,1,19,0,0,0,1,1,0,0,0,0,1,-1,0.382194695
10,2,1,1,20,0,1,1,0,1,1,0,1,0,0,1,0.777759368
10,2,1,1,21,1,1,1,0,0,1,1,-1,1,0,0,0.77591984
10,2,1,1,22,0,0,0,1,0,0,1,0,-1,1,0,0.639904132
10,2,1,1,23,1,1,1,0,1,0,0,1,0,-1,1,0.566623175
10,2,1,1,24,0,1,1,1,0,1,0,0,1,0,-1,0.698812278
10,2,1,1,25,1,1,1,0,1,0,1,-1,0,1,0,0.852740006
10,2,1,1,26,0,1,1,1,0,1,0,0,-1,0,1,0.573835908
10,2,1,1,27,1,1,1,0,1,0,1,-1,0,-1,0,0.667363002
10,2,1,1,28,1,1,1,1,0,1,0,0,-1,0,-1,0.562907372
10,2,1,1,29,0,1,1,1,1,0,1,0,0,-1,0,0.534342789
10,2,1,1,30,1,1,1,0,1,1,0,-1,0,0,-1,0.567474729
10,2,1,1,31,0,1,1,1,0,1,1,0,-1,0,0,0.624311419
10,2,1,1,32,0,1,1,0,1,0,1,-1,0,-1,0,0.661886543
10,2,1,1,33,0,1,1,0,0,1,0,-1,-1,0,-1,0.600180847
10,2,1,1,34,1,1,1,0,0,0,1,-1,-1,-1,0,0.756996729
10,2,1,1,35,1,1,1,1,0,0,0,0,-1,-1,-1,0.770015987
10,2,1,1,36,1,1,1,1,1,0,0,0,0,-1,-1,0.642376734
10,2,1,1,37,1,1,1,1,1,1,0,0,0,0,-1,0.602707845
10,2,1,1,38,1,1,1,1,1,1,1,0,0,0,0,0.757971233
10,2,1,1,39,1,1,1,1,1,1,1,0,0,0,0,0.680828849
10,2,1,1,40,1,1,1,1,1,1,1,0,0,0,0,0.46577749
10,2,1,1,41,1,1,1,1,1,1,1,0,0,0,0,0.56013465
10,2,1,1,42,1,1,1,1,1,1,1,0,0,0,0,0.587500605
10,2,1,1,43,1,1,1,1,1,1,1,0,0,0,0,0.62593509
10,2,1,1,44,1,1,1,1,1,1,1,0,0,0,0,0.668226187
10,2,1,1,45,1,1,1,1,1,1,1,0,0,0,0,0.636474684
10,2,1,1,46,1,1,1,1,1,1,1,0,0,0,0,0.476587288
10,2,1,1,47,0,1,1,1,1,1,1,0,0,0,0,0.450246583
10,2,1,1,48,0,0,0,0,1,1,1,-1,0,0,0,0.565982498
10,2,1,1,49,0,1,1,0,0,1,1,1,-1,0,0,0.634109369
10,2,1,1,50,1,1,1,0,0,0,1,-1,1,-1,0,0.493569352
10,2,1,1,51,1,1,1,1,0,0,0,0,-1,1,-1,0.624272209
10,2,1,1,52,0,1,1,1,1,0,0,0,0,-1,1,0.665102995
10,2,1,1,53,1,1,1,0,1,1,0,-1,0,0,-1,0.523074752
10,2,1,1,54,1,1,1,1,0,1,1,0,-1,0,0,0.508158196
10,2,1,1,55,0,1,1,1,1,0,1,0,0,-1,0,0.48646779
10,2,1,1,56,0,1,0,0,1,1,0,-1,0,0,-1,0.542981936
10,2,1,1,57,0,1,0,0,0,1,1,-1,-1,0,0,0.577026963
10,2,1,1,58,0,1,0,0,0,0,1,-1,-1,-1,0,0.438485511
10,2,1,1,59,0,1,0,0,0,0,0,-1,-1,-1,-1,0.580533886
10,2,1,1,60,0,0,1,0,0,0,0,-1,-1,-1,-1,0.826384244
10,2,1,1,61,1,0,1,0,0,0,0,1,-1,-1,-1,0.835663841
10,2,1,1,62,1,0,1,-1,0,0,0,0,1,-1,-1,0.902257077
10,2,1,1,63,0,0,1,-1,-1,0,0,0,0,1,-1,0.523727958
10,2,1,1,64,1,0,1,0,-1,-1,0,1,0,0,1,0.706923394
10,2,1,1,65,1,0,1,-1,0,-1,-1,0,1,0,0,0.493544116
10,2,1,1,66,0,1,0,-1,-1,0,-1,0,0,1,0,0.446010547
10,2,1,1,67,1,0,1,0,-1,-1,0,-1,0,0,1,0.617953015
10,2,1,1,68,1,0,1,-1,0,-1,-1,0,-1,0,0,0.523438204
10,2,1,1,69,0,0,1,-1,-1,0,-1,0,0,-1,0,0.526434956
10,2,1,1,70,1,0,1,0,-1,-1,0,1,0,0,-1,0.550054362
10,2,1,1,71,0,0,0,-1,0,-1,-1,0,1,0,0,0.547777471
10,2,1,1,72,0,0,0,0,-1,0,-1,1,0,1,0,0.752869676
10,2,1,1,73,1,1,1,0,0,-1,0,1,1,0,1,0.85698829
10,2,1,1,74,1,1,1,1,0,0,-1,0,1,1,0,0.565796719
10,2,1,1,75,1,1,1,1,1,0,0,0,0,1,1,0.565198372
10,2,1,1,76,1,1,1,1,1,1,0,0,0,0,1,0.742229909
10,2,1,1,77,1,0,0,1,1,1,1,0,0,0,0,0.898190824
10,2,1,1,78,0,0,0,-1,1,1,1,0,0,0,0,0.539878606
10,2,1,1,79,0,0,0,0,-1,1,1,1,0,0,0,0.738134253
10,2,1,1,80,0,1,1,0,0,-1,1,1,1,0,0,0.507258227
10,2,1,1,81,1,1,1,0,0,0,-1,-1,1,1,0,0.568547596
10,2,1,1,82,1,1,1,1,0,0,0,0,-1,1,1,0.619042263
10,2,1,1,83,1,1,1,1,1,0,0,0,0,-1,1,0.865714422
10,2,1,1,84,1,1,1,1,1,1,0,0,0,0,-1,0.587963801
10,2,1,1,85,0,1,1,1,1,1,1,0,0,0,0,0.472306231
10,2,1,1,86,1,1,1,0,1,1,1,-1,0,0,0,0.427822922
10,2,1,1,87,1,1,1,1,0,1,1,0,-1,0,0,0.545226237
10,2,1,1,88,0,1,1,1,1,0,1,0,0,-1,0,0.465585277
10,2,1,1,89,1,1,1,0,1,1,0,-1,0,0,-1,0.466816675
10,2,1,1,90,0,0,0,1,0,1,1,0,-1,0,0,0.433170276
10,2,1,1,91,0,1,0,0,1,0,1,1,0,-1,0,0.530893758
10,2,1,1,92,0,1,0,0,0,1,0,-1,1,0,-1,0.531815969
10,2,1,1,93,0,0,1,0,0,0,1,-1,-1,1,0,0.569475093
10,2,1,1,94,0,1,0,0,0,0,0,1,-1,-1,1,0.692379362
10,2,1,1,95,1,0,1,0,0,0,0,-1,1,-1,-1,0.720717924
10,2,1,1,96,1,0,1,-1,0,0,0,0,-1,1,-1,0.582560912
10,2,1,1,97,1,0,1,-1,-1,0,0,0,0,-1,1,0.645826359
10,2,1,1,98,1,0,1,-1,-1,-1,0,0,0,0,-1,0.749000134
10,2,1,1,99,1,0,1,-1,-1,-1,-1,0,0,0,0,0.479433288
10,2,1,1,100,0,0,1,-1,-1,-1,-1,0,0,0,0,0.550875411
10,2,1,1,101,0,0,1,0,-1,-1,-1,1,0,0,0,0.53100502
10,2,1,1,102,0,1,0,0,0,-1,-1,1,1,0,0,0.721998723
10,2,1,1,103,1,0,1,0,0,0,-1,-1,1,1,0,0.561234845
10,2,1,1,104,0,0,1,-1,0,0,0,0,-1,1,1,0.678653
10,2,1,1,105,0,1,0,0,-1,0,0,1,0,-1,1,0.812127122
10,2,1,1,106,1,0,0,0,0,-1,0,-1,1,0,-1,0.583009036
10,2,1,1,107,0,0,0,-1,0,0,-1,0,-1,1,0,0.565573996
10,2,1,1,108,1,0,0,0,-1,0,0,1,0,-1,1,0.729290779
10,2,1,1,109,0,0,0,-1,0,-1,0,0,1,0,-1,0.630929619
10,2,1,1,110,1,0,0,0,-1,0,-1,1,0,1,0,0.669179364
10,2,1,1,111,0,0,0,-1,0,-1,0,0,1,0,1,0.819002018
10,2,1,1,112,1,0,0,0,-1,0,-1,1,0,1,0,0.64617496
10,2,1,1,113,0,0,0,-1,0,-1,0,0,1,0,1,0.48244416
10,2,1,1,114,0,0,0,0,-1,0,-1,1,0,1,0,0.719516527
10,2,1,1,115,1,1,1,0,0,-1,0,1,1,0,1,0.650778977
10,2,1,1,116,1,1,1,1,0,0,-1,0,1,1,0,0.584174961
10,2,1,1,117,0,1,1,1,1,0,0,0,0,1,1,0.539867458
10,2,1,1,118,1,1,1,0,1,1,0,-1,0,0,1,0.552505339
10,2,1,1,119,1,1,1,1,0,1,1,0,-1,0,0,0.557130956
10,2,1,1,120,1,1,1,1,1,0,1,0,0,-1,0,0.638819809
10,2,1,1,121,0,1,1,1,1,1,0,0,0,0,-1,0.585141511
10,2,1,1,122,1,1,1,0,1,1,1,-1,0,0,0,0.583310556
10,2,1,1,123,1,1,1,1,0,1,1,0,-1,0,0,0.591955024
10,2,1,1,124,0,1,1,1,1,0,1,0,0,-1,0,0.626140091
10,2,1,1,125,0,1,1,0,1,1,0,-1,0,0,-1,0.635740598
10,2,1,1,126,1,0,1,0,0,1,1,-1,-1,0,0,0.474868786
10,2,1,1,127,1,0,1,-1,0,0,1,0,-1,-1,0,0.550491058
10,2,1,1,128,1,0,1,-1,-1,0,0,0,0,-1,-1,0.56544464
10,2,1,1,129,0,0,1,-1,-1,-1,0,0,0,0,-1,0.541551075
10,2,1,1,130,1,0,1,0,-1,-1,-1,1,0,0,0,0.588426496
10,2,1,1,131,1,0,1,-1,0,-1,-1,0,1,0,0,0.597510258
10,2,1,1,132,1,0,1,-1,-1,0,-1,0,0,1,0,0.548369024
10,2,1,1,133,1,0,1,-1,-1,-1,0,0,0,0,1,0.569532539
10,2,1,1,134,1,0,1,-1,-1,-1,-1,0,0,0,0,0.565064795
10,2,1,1,135,1,0,1,-1,-1,-1,-1,0,0,0,0,0.542741312
10,2,1,1,136,0,0,1,-1,-1,-1,-1,0,0,0,0,0.56231189
10,2,1,1,137,0,0,1,0,-1,-1,-1,1,0,0,0,0.694960863
10,2,1,1,138,1,1,0,0,0,-1,-1,1,1,0,0,0.600976085
10,2,1,1,139,0,1,0,1,0,0,-1,0,1,1,0,0.538101375
10,2,1,1,140,0,1,0,0,1,0,0,-1,0,1,1,0.529275992
10,2,1,1,141,1,0,1,0,0,1,0,-1,-1,0,1,0.931277385
10,2,1,1,142,1,0,1,-1,0,0,1,0,-1,-1,0,0.504872918
10,2,1,1,143,1,0,1,-1,-1,0,0,0,0,-1,-1,0.619032809
10,2,1,1,144,1,0,1,-1,-1,-1,0,0,0,0,-1,0.551254834
10,2,1,1,145,1,0,1,-1,-1,-1,-1,0,0,0,0,0.512529486
10,2,1,1,146,1,0,1,-1,-1,-1,-1,0,0,0,0,0.774378336
10,2,1,1,147,0,0,1,-1,-1,-1,-1,0,0,0,0,0.616781464
10,2,1,1,148,1,0,1,0,-1,-1,-1,1,0,0,0,0.718010432
10,2,1,1,149,0,0,1,-1,0,-1,-1,0,1,0,0,0.588985331
10,2,1,1,150,1,0,1,0,-1,0,-1,1,0,1,0,0.607331037
10,2,1,1,151,1,0,1,-1,0,-1,0,0,1,0,1,0.584166736
10,2,1,1,152,1,0,1,-1,-1,0,-1,0,0,1,0,0.516073763
10,2,1,1,153,0,0,1,-1,-1,-1,0,0,0,0,1,0.605176811
10,2,1,1,154,1,0,1,0,-1,-1,-1,1,0,0,0,0.569544303
10,2,1,1,155,1,0,1,-1,0,-1,-1,0,1,0,0,0.879548074
10,2,1,1,156,0,0,1,-1,-1,0,-1,0,0,1,0,0.626368926
10,2,1,1,157,1,0,1,0,-1,-1,0,1,0,0,1,0.636152062
10,2,1,1,158,1,0,1,-1,0,-1,-1,0,1,0,0,0.578661384
10,2,1,1,159,1,0,1,-1,-1,0,-1,0,0,1,0,0.426227847
10,2,1,1,160,1,0,1,-1,-1,-1,0,0,0,0,1,0.518296762
11,2,1,1,1,1,0,1,NaN,NaN,NaN,NaN,NaN,NaN,NaN,NaN,0.966646749
11,2,1,1,2,1,0,1,-1,NaN,NaN,NaN,0,NaN,NaN,NaN,0.590777266
11,2,1,1,3,1,0,1,-1,-1,NaN,NaN,0,0,NaN,NaN,0.562391128
11,2,1,1,4,1,0,1,-1,-1,-1,NaN,0,0,0,NaN,0.509421393
11,2,1,1,5,1,0,1,-1,-1,-1,-1,0,0,0,0,0.557592979
11,2,1,1,6,0,0,1,-1,-1,-1,-1,0,0,0,0,0.760428673
11,2,1,1,7,0,1,0,0,-1,-1,-1,1,0,0,0,0.810677214
11,2,1,1,8,1,0,1,0,0,-1,-1,-1,1,0,0,0.541073108
11,2,1,1,9,1,0,1,-1,0,0,-1,0,-1,1,0,0.621036462
11,2,1,1,10,1,0,1,-1,-1,0,0,0,0,-1,1,0.761216927
11,2,1,1,11,1,0,1,-1,-1,-1,0,0,0,0,-1,0.574833636
11,2,1,1,12,1,1,0,-1,-1,-1,-1,0,0,0,0,0.705111945
11,2,1,1,13,0,0,0,1,-1,-1,-1,0,0,0,0,0
11,2,1,1,14,1,0,1,NaN,1,-1,-1,NaN,0,0,0,0.492316439
11,2,1,1,15,1,0,1,-1,NaN,1,-1,0,NaN,0,0,0.6559586
11,2,1,1,16,1,0,1,-1,-1,NaN,1,0,0,NaN,0,0.558226298
11,2,1,1,17,1,0,1,-1,-1,-1,NaN,0,0,0,NaN,0.618196507
11,2,1,1,18,0,1,0,-1,-1,-1,-1,0,0,0,0,0.450230924
11,2,1,1,19,1,0,1,0,-1,-1,-1,-1,0,0,0,0.522540048
11,2,1,1,20,0,0,1,-1,0,-1,-1,0,-1,0,0,0.643004642
11,2,1,1,21,0,1,0,0,-1,0,-1,1,0,-1,0,0.623584208
11,2,1,1,22,0,1,0,0,0,-1,0,-1,1,0,-1,0.912383716
11,2,1,1,23,1,0,1,0,0,0,-1,-1,-1,1,0,0.563039731
11,2,1,1,24,1,0,1,-1,0,0,0,0,-1,-1,1,0.559632793
11,2,1,1,25,1,0,1,-1,-1,0,0,0,0,-1,-1,0.629083554
11,2,1,1,26,1,0,1,-1,-1,-1,0,0,0,0,-1,0.583688229
11,2,1,1,27,1,0,1,-1,-1,-1,-1,0,0,0,0,0.50022021
11,2,1,1,28,0,0,1,-1,-1,-1,-1,0,0,0,0,0.526323705
11,2,1,1,29,0,1,0,0,-1,-1,-1,1,0,0,0,0.429118889
11,2,1,1,30,1,0,1,0,0,-1,-1,-1,1,0,0,0.493522535
11,2,1,1,31,0,0,1,-1,0,0,-1,0,-1,1,0,0.456113403
11,2,1,1,32,0,1,0,0,-1,0,0,1,0,-1,1,0.611868615
11,2,1,1,33,1,0,1,0,0,-1,0,-1,1,0,-1,0.733725538
11,2,1,1,34,1,0,1,-1,0,0,-1,0,-1,1,0,0.482300539
11,2,1,1,35,1,0,1,-1,-1,0,0,0,0,-1,1,0.469467097
11,2,1,1,36,1,0,1,-1,-1,-1,0,0,0,0,-1,0.478523225
11,2,1,1,37,1,0,1,-1,-1,-1,-1,0,0,0,0,0.538889145
11,2,1,1,38,1,0,1,-1,-1,-1,-1,0,0,0,0,0.462372714
11,2,1,1,39,1,0,1,-1,-1,-1,-1,0,0,0,0,0.468936029
11,2,1,1,40,1,0,1,-1,-1,-1,-1,0,0,0,0,0.480084039
11,2,1,1,41,1,0,1,-1,-1,-1,-1,0,0,0,0,0.433506133
11,2,1,1,42,1,0,1,-1,-1,-1,-1,0,0,0,0,0.697797617
11,2,1,1,43,0,1,0,-1,-1,-1,-1,0,0,0,0,0.55342973
11,2,1,1,44,1,0,1,0,-1,-1,-1,-1,0,0,0,0.569209751
11,2,1,1,45,0,0,1,-1,0,-1,-1,0,-1,0,0,0.603416572
11,2,1,1,46,1,0,1,0,-1,0,-1,1,0,-1,0,0.493628445
11,2,1,1,47,0,1,0,-1,0,-1,0,0,1,0,-1,0.528418687
11,2,1,1,48,0,0,1,0,-1,0,-1,-1,0,1,0,0.455619481
11,2,1,1,49,0,1,0,0,0,-1,0,1,-1,0,1,0.474014864
11,2,1,1,50,0,1,0,0,0,0,-1,-1,1,-1,0,0.444622179
11,2,1,1,51,1,0,1,0,0,0,0,-1,-1,1,-1,0.45585415
11,2,1,1,52,1,0,1,-1,0,0,0,0,-1,-1,1,0.62566384
11,2,1,1,53,1,0,1,-1,-1,0,0,0,0,-1,-1,0.588076275
11,2,1,1,54,1,0,1,-1,-1,-1,0,0,0,0,-1,0.608142
11,2,1,1,55,1,0,1,-1,-1,-1,-1,0,0,0,0,0.495283034
11,2,1,1,56,1,0,0,-1,-1,-1,-1,0,0,0,0,0.506665953
11,2,1,1,57,0,0,0,-1,-1,-1,-1,0,0,0,0,0.568482785
11,2,1,1,58,1,1,1,0,-1,-1,-1,1,0,0,0,0.737198078
11,2,1,1,59,1,1,1,1,0,-1,-1,0,1,0,0,0.825407876
11,2,1,1,60,1,1,1,1,1,0,-1,0,0,1,0,0.491642774
11,2,1,1,61,1,1,1,1,1,1,0,0,0,0,1,0.57956874
11,2,1,1,62,1,1,1,1,1,1,1,0,0,0,0,0.605919976
11,2,1,1,63,1,1,1,1,1,1,1,0,0,0,0,0.529087185
11,2,1,1,64,0,1,1,1,1,1,1,0,0,0,0,0.503242316
11,2,1,1,65,1,1,1,0,1,1,1,-1,0,0,0,0.47219742
11,2,1,1,66,1,1,1,1,0,1,1,0,-1,0,0,0.557170756
11,2,1,1,67,1,1,1,1,1,0,1,0,0,-1,0,0.496507651
11,2,1,1,68,1,1,1,1,1,1,0,0,0,0,-1,0.554102348
11,2,1,1,69,1,1,1,1,1,1,1,0,0,0,0,0.464496548
11,2,1,1,70,0,1,1,1,1,1,1,0,0,0,0,0.558928976
11,2,1,1,71,0,1,0,0,1,1,1,-1,0,0,0,0.576759834
11,2,1,1,72,1,1,0,0,0,1,1,-1,-1,0,0,0.71041321
11,2,1,1,73,0,1,0,1,0,0,1,0,-1,-1,0,0.520731731
11,2,1,1,74,1,0,1,0,1,0,0,-1,0,-1,-1,0.953802014
11,2,1,1,75,1,0,1,-1,0,1,0,0,-1,0,-1,0.64492129
11,2,1,1,76,1,0,1,-1,-1,0,1,0,0,-1,0,0.568672105
11,2,1,1,77,1,0,1,-1,-1,-1,0,0,0,0,-1,0.545143988
11,2,1,1,78,0,0,1,-1,-1,-1,-1,0,0,0,0,0.649050154
11,2,1,1,79,1,0,1,0,-1,-1,-1,1,0,0,0,0.685412706
11,2,1,1,80,1,0,1,-1,0,-1,-1,0,1,0,0,0.854289412
11,2,1,1,81,1,0,1,-1,-1,0,-1,0,0,1,0,0.636675708
11,2,1,1,82,1,0,1,-1,-1,-1,0,0,0,0,1,0.558684311
11,2,1,1,83,1,0,1,-1,-1,-1,-1,0,0,0,0,0.616848999
11,2,1,1,84,0,1,0,-1,-1,-1,-1,0,0,0,0,0.535337459
11,2,1,1,85,1,0,1,0,-1,-1,-1,-1,0,0,0,0.445728014
11,2,1,1,86,0,1,0,-1,0,-1,-1,0,-1,0,0,0.539287384
11,2,1,1,87,1,0,1,0,-1,0,-1,-1,0,-1,0,0.642319241
11,2,1,1,88,1,0,1,-1,0,-1,0,0,-1,0,-1,0.799187656
11,2,1,1,89,1,0,1,-1,-1,0,-1,0,0,-1,0,0.581263448
11,2,1,1,90,0,0,1,-1,-1,-1,0,0,0,0,-1,0.539647322
11,2,1,1,91,0,0,0,0,-1,-1,-1,1,0,0,0,0.634357232
11,2,1,1,92,0,0,0,0,0,-1,-1,1,1,0,0,0.840156827
11,2,1,1,93,1,1,1,0,0,0,-1,1,1,1,0,0.534655882
11,2,1,1,94,1,1,1,1,0,0,0,0,1,1,1,0.573845168
11,2,1,1,95,1,1,1,1,1,0,0,0,0,1,1,0.604437991
11,2,1,1,96,1,1,1,1,1,1,0,0,0,0,1,0.525125879
11,2,1,1,97,0,1,1,1,1,1,1,0,0,0,0,0.524281928
11,2,1,1,98,1,1,1,0,1,1,1,-1,0,0,0,0.550777478
11,2,1,1,99,1,1,1,1,0,1,1,0,-1,0,0,0.729572297
11,2,1,1,100,1,1,1,1,1,0,1,0,0,-1,0,0.540836084
11,2,1,1,101,1,1,1,1,1,1,0,0,0,0,-1,0.50143211
11,2,1,1,102,1,1,1,1,1,1,1,0,0,0,0,0.601698903
11,2,1,1,103,0,0,0,1,1,1,1,0,0,0,0,0.628528051
11,2,1,1,104,1,1,1,0,1,1,1,1,0,0,0,1.171604439
11,2,1,1,105,1,0,0,1,0,1,1,0,1,0,0,0.716464236
11,2,1,1,106,0,1,0,-1,1,0,1,0,0,1,0,0.526590522
11,2,1,1,107,0,1,0,0,-1,1,0,-1,0,0,1,0.641630045
11,2,1,1,108,0,0,1,0,0,-1,1,-1,-1,0,0,0.862529585
11,2,1,1,109,0,1,0,0,0,0,-1,1,-1,-1,0,0.471138866
11,2,1,1,110,1,0,1,0,0,0,0,-1,1,-1,-1,0.501793732
11,2,1,1,111,1,0,1,-1,0,0,0,0,-1,1,-1,0.559632966
11,2,1,1,112,1,0,1,-1,-1,0,0,0,0,-1,1,0.541119469
11,2,1,1,113,1,0,1,-1,-1,-1,0,0,0,0,-1,0.56547343
11,2,1,1,114,0,0,1,-1,-1,-1,-1,0,0,0,0,0.597696444
11,2,1,1,115,0,0,1,0,-1,-1,-1,1,0,0,0,0.638883206
11,2,1,1,116,1,1,0,0,0,-1,-1,1,1,0,0,0.571042064
11,2,1,1,117,0,1,0,1,0,0,-1,0,1,1,0,0.528837121
11,2,1,1,118,1,0,1,0,1,0,0,-1,0,1,1,0.483656095
11,2,1,1,119,0,0,1,-1,0,1,0,0,-1,0,1,0.58663259
11,2,1,1,120,0,1,0,0,-1,0,1,1,0,-1,0,0.52279167
11,2,1,1,121,1,0,1,0,0,-1,0,-1,1,0,-1,0.587800977
11,2,1,1,122,0,0,1,-1,0,0,-1,0,-1,1,0,0.565816795
11,2,1,1,123,1,0,1,0,-1,0,0,1,0,-1,1,0.591320699
11,2,1,1,124,1,0,1,-1,0,-1,0,0,1,0,-1,0.499533638
11,2,1,1,125,1,0,1,-1,-1,0,-1,0,0,1,0,0.551596588
11,2,1,1,126,0,0,0,-1,-1,-1,0,0,0,0,1,0.503504401
11,2,1,1,127,1,1,1,0,-1,-1,-1,1,0,0,0,0.8082766
11,2,1,1,128,1,1,1,1,0,-1,-1,0,1,0,0,0.628629132
11,2,1,1,129,0,0,0,1,1,0,-1,0,0,1,0,0.494842632
11,2,1,1,130,1,1,1,0,1,1,0,1,0,0,1,0.544265064
11,2,1,1,131,1,1,1,1,0,1,1,0,1,0,0,0.519571871
11,2,1,1,132,1,1,1,1,1,0,1,0,0,1,0,0.511778421
11,2,1,1,133,1,1,1,1,1,1,0,0,0,0,1,0.663466467
11,2,1,1,134,1,1,1,1,1,1,1,0,0,0,0,0.618376541
11,2,1,1,135,0,1,1,1,1,1,1,0,0,0,0,0.518927059
11,2,1,1,136,0,0,0,0,1,1,1,-1,0,0,0,0.687959547
11,2,1,1,137,0,1,1,0,0,1,1,1,-1,0,0,0.527456522
11,2,1,1,138,0,0,0,0,0,0,1,-1,1,-1,0,0.478080127
11,2,1,1,139,1,1,1,0,0,0,0,1,-1,1,-1,0.494028532
11,2,1,1,140,0,1,1,1,0,0,0,0,1,-1,1,0.535024268
11,2,1,1,141,0,1,1,0,1,0,0,-1,0,1,-1,0.615030929
11,2,1,1,142,1,0,0,0,0,1,0,-1,-1,0,1,0.467803581
11,2,1,1,143,0,0,0,-1,0,0,1,0,-1,-1,0,0.564233252
11,2,1,1,144,1,1,1,0,-1,0,0,1,0,-1,-1,0.600782086
11,2,1,1,145,1,1,1,1,0,-1,0,0,1,0,-1,0.563492264
11,2,1,1,146,1,1,1,1,1,0,-1,0,0,1,0,0.598608599
11,2,1,1,147,0,1,1,1,1,1,0,0,0,0,1,0.563570885
11,2,1,1,148,0,0,0,0,1,1,1,-1,0,0,0,0.600880109
11,2,1,1,149,1,1,1,0,0,1,1,1,-1,0,0,0.543624803
11,2,1,1,150,0,1,1,1,0,0,1,0,1,-1,0,0.664561789
11,2,1,1,151,0,0,0,0,1,0,0,-1,0,1,-1,0.669309096
11,2,1,1,152,1,1,1,0,0,1,0,1,-1,0,1,0.506986838
11,2,1,1,153,0,1,1,1,0,0,1,0,1,-1,0,0.570725001
11,2,1,1,154,1,0,0,0,1,0,0,-1,0,1,-1,0.509338018
11,2,1,1,155,0,0,0,-1,0,1,0,0,-1,0,1,0.500966711
11,2,1,1,156,1,1,1,0,-1,0,1,1,0,-1,0,0.822394345
11,2,1,1,157,0,1,1,1,0,-1,0,0,1,0,-1,0.658863702
11,2,1,1,158,1,0,0,0,1,0,-1,-1,0,1,0,0.633837349
11,2,1,1,159,1,1,1,-1,0,1,0,0,-1,0,1,0.531757055
11,2,1,1,160,0,1,1,1,-1,0,1,0,0,-1,0,0.616443875
12,2,1,1,1,1,0,1,NaN,NaN,NaN,NaN,NaN,NaN,NaN,NaN,0.799472758
12,2,1,1,2,1,0,1,-1,NaN,NaN,NaN,0,NaN,NaN,NaN,0.547787495
12,2,1,1,3,1,0,1,-1,-1,NaN,NaN,0,0,NaN,NaN,0.494481097
12,2,1,1,4,1,0,1,-1,-1,-1,NaN,0,0,0,NaN,0.460116957
12,2,1,1,5,0,0,1,-1,-1,-1,-1,0,0,0,0,0.516313789
12,2,1,1,6,1,0,1,0,-1,-1,-1,1,0,0,0,0.632053738
12,2,1,1,7,1,0,1,-1,0,-1,-1,0,1,0,0,0.543674871
12,2,1,1,8,1,0,1,-1,-1,0,-1,0,0,1,0,0.474030865
12,2,1,1,9,1,0,1,-1,-1,-1,0,0,0,0,1,0.586930148
12,2,1,1,10,1,0,1,-1,-1,-1,-1,0,0,0,0,0.52494977
12,2,1,1,11,1,0,1,-1,-1,-1,-1,0,0,0,0,0.491695857
12,2,1,1,12,0,0,1,-1,-1,-1,-1,0,0,0,0,0.461818451
12,2,1,1,13,1,0,1,0,-1,-1,-1,1,0,0,0,0.468109565
12,2,1,1,14,1,0,1,-1,0,-1,-1,0,1,0,0,0.490395146
12,2,1,1,15,1,0,1,-1,-1,0,-1,0,0,1,0,0.465060202
12,2,1,1,16,0,0,1,-1,-1,-1,0,0,0,0,1,0.436343177
12,2,1,1,17,1,0,1,0,-1,-1,-1,1,0,0,0,0.455945472
12,2,1,1,18,1,0,1,-1,0,-1,-1,0,1,0,0,0.49759583
12,2,1,1,19,0,0,1,-1,-1,0,-1,0,0,1,0,0.479073323
12,2,1,1,20,1,0,1,0,-1,-1,0,1,0,0,1,0.439307572
12,2,1,1,21,1,0,1,-1,0,-1,-1,0,1,0,0,0.443489738
12,2,1,1,22,1,0,1,-1,-1,0,-1,0,0,1,0,0.434973666
12,2,1,1,23,1,0,1,-1,-1,-1,0,0,0,0,1,0.449455179
12,2,1,1,24,1,0,1,-1,-1,-1,-1,0,0,0,0,0.605021269
12,2,1,1,25,1,0,1,-1,-1,-1,-1,0,0,0,0,0.537164291
12,2,1,1,26,1,0,1,-1,-1,-1,-1,0,0,0,0,0.50233105
12,2,1,1,27,1,0,1,-1,-1,-1,-1,0,0,0,0,0.577974204
12,2,1,1,28,1,0,1,-1,-1,-1,-1,0,0,0,0,0.60516841
12,2,1,1,29,1,0,1,-1,-1,-1,-1,0,0,0,0,0.542373023
12,2,1,1,30,1,0,1,-1,-1,-1,-1,0,0,0,0,0.488389285
12,2,1,1,31,1,0,1,-1,-1,-1,-1,0,0,0,0,0.470172117
12,2,1,1,32,0,0,1,-1,-1,-1,-1,0,0,0,0,0.481226757
12,2,1,1,33,1,0,1,0,-1,-1,-1,1,0,0,0,0.487160886
12,2,1,1,34,1,0,1,-1,0,-1,-1,0,1,0,0,0.540148834
12,2,1,1,35,1,0,1,-1,-1,0,-1,0,0,1,0,0.440361931
12,2,1,1,36,1,0,1,-1,-1,-1,0,0,0,0,1,0.472247318
12,2,1,1,37,1,0,1,-1,-1,-1,-1,0,0,0,0,0.433865247
12,2,1,1,38,0,0,1,-1,-1,-1,-1,0,0,0,0,0.517652262
12,2,1,1,39,0,0,1,0,-1,-1,-1,1,0,0,0,0.532632845
12,2,1,1,40,0,1,0,0,0,-1,-1,1,1,0,0,0.627085055
12,2,1,1,41,0,1,0,0,0,0,-1,-1,1,1,0,0.494700017
12,2,1,1,42,1,0,1,0,0,0,0,-1,-1,1,1,0.67211252
12,2,1,1,43,1,0,1,-1,0,0,0,0,-1,-1,1,0.477126494
12,2,1,1,44,1,0,1,-1,-1,0,0,0,0,-1,-1,0.439601929
12,2,1,1,45,1,0,1,-1,-1,-1,0,0,0,0,-1,0.534466041
12,2,1,1,46,1,0,1,-1,-1,-1,-1,0,0,0,0,0.488318189
12,2,1,1,47,1,0,1,-1,-1,-1,-1,0,0,0,0,0.542411116
12,2,1,1,48,1,0,1,-1,-1,-1,-1,0,0,0,0,0.640530923
12,2,1,1,49,1,0,1,-1,-1,-1,-1,0,0,0,0,0.461814722
12,2,1,1,50,1,0,1,-1,-1,-1,-1,0,0,0,0,0.468648675
12,2,1,1,51,1,0,1,-1,-1,-1,-1,0,0,0,0,0.507368776
12,2,1,1,52,1,0,1,-1,-1,-1,-1,0,0,0,0,0.547327203
12,2,1,1,53,1,0,1,-1,-1,-1,-1,0,0,0,0,0.462397012
12,2,1,1,54,1,0,1,-1,-1,-1,-1,0,0,0,0,0.538649721
12,2,1,1,55,1,0,1,-1,-1,-1,-1,0,0,0,0,0.447936881
12,2,1,1,56,1,0,0,-1,-1,-1,-1,0,0,0,0,0.461047776
12,2,1,1,57,0,0,0,-1,-1,-1,-1,0,0,0,0,0.445979795
12,2,1,1,58,0,0,0,0,-1,-1,-1,1,0,0,0,0.529074683
12,2,1,1,59,0,1,1,0,0,-1,-1,1,1,0,0,0.671999604
12,2,1,1,60,1,1,1,0,0,0,-1,-1,1,1,0,0.723213662
12,2,1,1,61,1,1,1,1,0,0,0,0,-1,1,1,0.470505036
12,2,1,1,62,0,1,1,1,1,0,0,0,0,-1,1,0.584173639
12,2,1,1,63,0,1,1,0,1,1,0,-1,0,0,-1,0.554131345
12,2,1,1,64,0,0,0,0,0,1,1,-1,-1,0,0,0.594354935
12,2,1,1,65,0,0,0,0,0,0,1,1,-1,-1,0,0.531685405
12,2,1,1,66,0,0,0,0,0,0,0,1,1,-1,-1,0.567097844
12,2,1,1,67,1,1,1,0,0,0,0,1,1,1,-1,0.489258534
12,2,1,1,68,1,1,1,1,0,0,0,0,1,1,1,0.479398959
12,2,1,1,69,1,1,1,1,1,0,0,0,0,1,1,0.405870923
12,2,1,1,70,1,1,1,1,1,1,0,0,0,0,1,0.418197942
12,2,1,1,71,0,1,0,1,1,1,1,0,0,0,0,0.495500312
12,2,1,1,72,0,1,0,0,1,1,1,-1,0,0,0,0.523371686
12,2,1,1,73,1,1,0,0,0,1,1,-1,-1,0,0,0.536826424
12,2,1,1,74,0,1,0,1,0,0,1,0,-1,-1,0,0.445445226
12,2,1,1,75,0,1,0,0,1,0,0,-1,0,-1,-1,0.747116299
12,2,1,1,76,1,0,1,0,0,1,0,-1,-1,0,-1,0.454379871
12,2,1,1,77,0,0,1,-1,0,0,1,0,-1,-1,0,0.600364147
12,2,1,1,78,1,0,1,0,-1,0,0,1,0,-1,-1,0.745623056
12,2,1,1,79,1,0,1,-1,0,-1,0,0,1,0,-1,0.450929479
12,2,1,1,80,1,0,1,-1,-1,0,-1,0,0,1,0,0.454480144
12,2,1,1,81,0,0,1,-1,-1,-1,0,0,0,0,1,0.764009026
12,2,1,1,82,1,0,1,0,-1,-1,-1,1,0,0,0,0.521698666
12,2,1,1,83,1,0,1,-1,0,-1,-1,0,1,0,0,0.517914222
12,2,1,1,84,0,0,1,-1,-1,0,-1,0,0,1,0,0.495755045
12,2,1,1,85,0,0,1,0,-1,-1,0,1,0,0,1,0.506687892
12,2,1,1,86,0,1,0,0,0,-1,-1,1,1,0,0,0.553675621
12,2,1,1,87,0,1,0,0,0,0,-1,-1,1,1,0,0.575760111
12,2,1,1,88,1,0,1,0,0,0,0,-1,-1,1,1,0.496827843
12,2,1,1,89,1,0,1,-1,0,0,0,0,-1,-1,1,0.446575032
12,2,1,1,90,1,0,1,-1,-1,0,0,0,0,-1,-1,0.592857614
12,2,1,1,91,0,0,0,-1,-1,-1,0,0,0,0,-1,0.939716934
12,2,1,1,92,0,0,0,0,-1,-1,-1,1,0,0,0,0.642624418
12,2,1,1,93,1,1,1,0,0,-1,-1,1,1,0,0,0.65282435
12,2,1,1,94,1,1,1,1,0,0,-1,0,1,1,0,0.532580732
12,2,1,1,95,1,1,1,1,1,0,0,0,0,1,1,0.591909297
12,2,1,1,96,1,1,1,1,1,1,0,0,0,0,1,0.562264858
12,2,1,1,97,1,1,1,1,1,1,1,0,0,0,0,0.440856194
12,2,1,1,98,1,1,1,1,1,1,1,0,0,0,0,0.533449069
12,2,1,1,99,0,1,1,1,1,1,1,0,0,0,0,0.573519797
12,2,1,1,100,1,1,1,0,1,1,1,-1,0,0,0,0.432529922
12,2,1,1,101,1,1,1,1,0,1,1,0,-1,0,0,0.43207263
12,2,1,1,102,1,1,1,1,1,0,1,0,0,-1,0,0.532862463
12,2,1,1,103,1,1,1,1,1,1,0,0,0,0,-1,0.506893936
12,2,1,1,104,1,1,1,1,1,1,1,0,0,0,0,0.49070159
12,2,1,1,105,1,1,1,1,1,1,1,0,0,0,0,0.516111643
12,2,1,1,106,1,1,0,1,1,1,1,0,0,0,0,0.463285484
12,2,1,1,107,0,1,0,1,1,1,1,0,0,0,0,0.476791909
12,2,1,1,108,0,1,0,0,1,1,1,-1,0,0,0,0.420593776
12,2,1,1,109,0,1,0,0,0,1,1,-1,-1,0,0,0.548806748
12,2,1,1,110,1,0,1,0,0,0,1,-1,-1,-1,0,0.69202288
12,2,1,1,111,1,0,1,-1,0,0,0,0,-1,-1,-1,0.665371665
12,2,1,1,112,1,0,1,-1,-1,0,0,0,0,-1,-1,0.694724446
12,2,1,1,113,1,0,1,-1,-1,-1,0,0,0,0,-1,0.576165136
12,2,1,1,114,1,0,1,-1,-1,-1,-1,0,0,0,0,0.525343732
12,2,1,1,115,0,0,1,-1,-1,-1,-1,0,0,0,0,0.618327613
12,2,1,1,116,1,0,1,0,-1,-1,-1,1,0,0,0,0.495950051
12,2,1,1,117,1,0,1,-1,0,-1,-1,0,1,0,0,0.439531114
12,2,1,1,118,0,0,1,-1,-1,0,-1,0,0,1,0,0.450645141
12,2,1,1,119,1,0,1,0,-1,-1,0,1,0,0,1,0.433162962
12,2,1,1,120,1,0,1,-1,0,-1,-1,0,1,0,0,0.565691317
12,2,1,1,121,1,0,1,-1,-1,0,-1,0,0,1,0,0.633302228
12,2,1,1,122,1,0,1,-1,-1,-1,0,0,0,0,1,0.584624575
12,2,1,1,123,1,0,1,-1,-1,-1,-1,0,0,0,0,0.606392652
12,2,1,1,124,0,0,1,-1,-1,-1,-1,0,0,0,0,0.526840114
12,2,1,1,125,1,0,1,0,-1,-1,-1,1,0,0,0,0.537089937
12,2,1,1,126,1,0,0,-1,0,-1,-1,0,1,0,0,0.535897584
12,2,1,1,127,0,0,0,-1,-1,0,-1,0,0,1,0,0.542848006
12,2,1,1,128,1,0,0,0,-1,-1,0,1,0,0,1,0.542958198
12,2,1,1,129,0,0,0,-1,0,-1,-1,0,1,0,0,0.464562443
12,2,1,1,130,1,0,0,0,-1,0,-1,1,0,1,0,0.719681148
12,2,1,1,131,1,1,1,-1,0,-1,0,0,1,0,1,0.528684931
12,2,1,1,132,0,0,0,1,-1,0,-1,0,0,1,0,0.531549279
12,2,1,1,133,0,0,0,0,1,-1,0,1,0,0,1,0.816775287
12,2,1,1,134,0,0,0,0,0,1,-1,1,1,0,0,1.115109396
12,2,1,1,135,0,0,0,0,0,0,1,1,1,1,0,0.917393696
12,2,1,1,136,0,0,0,0,0,0,0,1,1,1,1,0
12,2,1,1,137,1,0,0,NaN,0,0,0,NaN,1,1,1,0.391267151
12,2,1,1,138,0,0,0,-1,NaN,0,0,0,NaN,1,1,0.557447653
12,2,1,1,139,0,0,0,0,-1,NaN,0,1,0,NaN,1,0.481150113
12,2,1,1,140,1,1,1,0,0,-1,NaN,1,1,0,NaN,0.463542817
12,2,1,1,141,1,1,1,1,0,0,-1,0,1,1,0,0.498636047
12,2,1,1,142,1,1,1,1,1,0,0,0,0,1,1,0.50553565
12,2,1,1,143,1,1,1,1,1,1,0,0,0,0,1,0.551572155
12,2,1,1,144,1,1,1,1,1,1,1,0,0,0,0,0.418681318
12,2,1,1,145,0,1,1,1,1,1,1,0,0,0,0,0.43730345
12,2,1,1,146,1,1,1,0,1,1,1,-1,0,0,0,0.579705571
12,2,1,1,147,1,1,1,1,0,1,1,0,-1,0,0,0.678225654
12,2,1,1,148,1,1,1,1,1,0,1,0,0,-1,0,0.505159934
12,2,1,1,149,1,1,1,1,1,1,0,0,0,0,-1,0.469054271
12,2,1,1,150,1,1,1,1,1,1,1,0,0,0,0,0.614681602
12,2,1,1,151,1,1,1,1,1,1,1,0,0,0,0,0.517663848
12,2,1,1,152,0,1,1,1,1,1,1,0,0,0,0,0.534568444
12,2,1,1,153,1,1,1,0,1,1,1,-1,0,0,0,0.514668822
12,2,1,1,154,0,1,1,1,0,1,1,0,-1,0,0,0.462851899
12,2,1,1,155,1,1,1,0,1,0,1,-1,0,-1,0,0.544727689
12,2,1,1,156,1,1,1,1,0,1,0,0,-1,0,-1,0.511818566
12,2,1,1,157,1,1,1,1,1,0,1,0,0,-1,0,0.570809069
12,2,1,1,158,1,1,1,1,1,1,0,0,0,0,-1,0.497086012
12,2,1,1,159,1,1,1,1,1,1,1,0,0,0,0,0.489510768
12,2,1,1,160,1,1,1,1,1,1,1,0,0,0,0,0.518470817
13,2,1,1,1,0,1,0,NaN,NaN,NaN,NaN,NaN,NaN,NaN,NaN,1.003326991
13,2,1,1,2,1,0,1,0,NaN,NaN,NaN,-1,NaN,NaN,NaN,0.772734658
13,2,1,1,3,1,0,1,-1,0,NaN,NaN,0,-1,NaN,NaN,0.844156508
13,2,1,1,4,1,0,1,-1,-1,0,NaN,0,0,-1,NaN,0.55836311
13,2,1,1,5,1,0,1,-1,-1,-1,0,0,0,0,-1,0.636909461
13,2,1,1,6,1,0,1,-1,-1,-1,-1,0,0,0,0,0.807700561
13,2,1,1,7,1,0,1,-1,-1,-1,-1,0,0,0,0,0.764187657
13,2,1,1,8,0,0,1,-1,-1,-1,-1,0,0,0,0,0.641839188
13,2,1,1,9,1,0,1,0,-1,-1,-1,1,0,0,0,0.646783099
13,2,1,1,10,1,0,1,-1,0,-1,-1,0,1,0,0,0.704985885
13,2,1,1,11,1,0,1,-1,-1,0,-1,0,0,1,0,0.603591429
13,2,1,1,12,0,0,1,-1,-1,-1,0,0,0,0,1,0.609383317
13,2,1,1,13,1,0,1,0,-1,-1,-1,1,0,0,0,0.590887978
13,2,1,1,14,1,0,1,-1,0,-1,-1,0,1,0,0,0.59887966
13,2,1,1,15,1,0,1,-1,-1,0,-1,0,0,1,0,0.600663155
13,2,1,1,16,0,0,1,-1,-1,-1,0,0,0,0,1,0.564873402
13,2,1,1,17,1,0,1,0,-1,-1,-1,1,0,0,0,0.5620163
13,2,1,1,18,1,0,1,-1,0,-1,-1,0,1,0,0,0.57919994
13,2,1,1,19,1,0,1,-1,-1,0,-1,0,0,1,0,0.586513774
13,2,1,1,20,1,0,1,-1,-1,-1,0,0,0,0,1,0.615095474
13,2,1,1,21,1,0,1,-1,-1,-1,-1,0,0,0,0,0.573613791
13,2,1,1,22,1,0,1,-1,-1,-1,-1,0,0,0,0,0.612369971
13,2,1,1,23,1,0,1,-1,-1,-1,-1,0,0,0,0,0.577514601
13,2,1,1,24,1,0,1,-1,-1,-1,-1,0,0,0,0,0.619322856
13,2,1,1,25,1,0,1,-1,-1,-1,-1,0,0,0,0,0.527352073
13,2,1,1,26,1,0,1,-1,-1,-1,-1,0,0,0,0,0.613135256
13,2,1,1,27,0,1,0,-1,-1,-1,-1,0,0,0,0,0.978765789
13,2,1,1,28,1,0,1,0,-1,-1,-1,-1,0,0,0,0.638810263
13,2,1,1,29,0,0,1,-1,0,-1,-1,0,-1,0,0,0.641243188
13,2,1,1,30,1,0,1,0,-1,0,-1,1,0,-1,0,0.630750063
13,2,1,1,31,1,0,1,-1,0,-1,0,0,1,0,-1,0.567878462
13,2,1,1,32,1,0,1,-1,-1,0,-1,0,0,1,0,0.612017721
13,2,1,1,33,0,0,1,-1,-1,-1,0,0,0,0,1,0.616198579
13,2,1,1,34,1,0,1,0,-1,-1,-1,1,0,0,0,0.572583437
13,2,1,1,35,1,0,1,-1,0,-1,-1,0,1,0,0,0.58502556
13,2,1,1,36,1,0,1,-1,-1,0,-1,0,0,1,0,0.558086374
13,2,1,1,37,1,0,1,-1,-1,-1,0,0,0,0,1,0.657721823
13,2,1,1,38,1,0,1,-1,-1,-1,-1,0,0,0,0,0.571028861
13,2,1,1,39,1,0,1,-1,-1,-1,-1,0,0,0,0,0.586891411
13,2,1,1,40,1,0,1,-1,-1,-1,-1,0,0,0,0,0.561429723
13,2,1,1,41,1,0,1,-1,-1,-1,-1,0,0,0,0,0.596355511
13,2,1,1,42,1,0,1,-1,-1,-1,-1,0,0,0,0,0.573684051
13,2,1,1,43,0,0,1,-1,-1,-1,-1,0,0,0,0,0.759932748
13,2,1,1,44,1,0,1,0,-1,-1,-1,1,0,0,0,0.595931029
13,2,1,1,45,1,0,1,-1,0,-1,-1,0,1,0,0,0.535261974
13,2,1,1,46,1,0,1,-1,-1,0,-1,0,0,1,0,0.598953381
13,2,1,1,47,1,0,1,-1,-1,-1,0,0,0,0,1,0.689973267
13,2,1,1,48,1,0,1,-1,-1,-1,-1,0,0,0,0,0.597559709
13,2,1,1,49,1,0,1,-1,-1,-1,-1,0,0,0,0,0.567679339
13,2,1,1,50,0,0,1,-1,-1,-1,-1,0,0,0,0,0.575366488
13,2,1,1,51,1,0,1,0,-1,-1,-1,1,0,0,0,0.524462338
13,2,1,1,52,1,0,1,-1,0,-1,-1,0,1,0,0,0.557056707
13,2,1,1,53,1,0,1,-1,-1,0,-1,0,0,1,0,0.587868012
13,2,1,1,54,1,0,1,-1,-1,-1,0,0,0,0,1,0.612820064
13,2,1,1,55,1,0,1,-1,-1,-1,-1,0,0,0,0,0.57600803
13,2,1,1,56,0,0,0,-1,-1,-1,-1,0,0,0,0,0.60829275
13,2,1,1,57,0,0,0,0,-1,-1,-1,1,0,0,0,0.639666523
13,2,1,1,58,1,1,1,0,0,-1,-1,1,1,0,0,0.670163633
13,2,1,1,59,1,1,1,1,0,0,-1,0,1,1,0,0.731155732
13,2,1,1,60,0,1,1,1,1,0,0,0,0,1,1,0.576504947
13,2,1,1,61,1,0,0,0,1,1,0,-1,0,0,1,0.8545532
13,2,1,1,62,0,0,0,-1,0,1,1,0,-1,0,0,0.630256631
13,2,1,1,63,1,1,1,0,-1,0,1,1,0,-1,0,0.602715423
13,2,1,1,64,1,1,1,1,0,-1,0,0,1,0,-1,0.677929638
13,2,1,1,65,1,1,1,1,1,0,-1,0,0,1,0,0.561296035
13,2,1,1,66,1,1,1,1,1,1,0,0,0,0,1,0.640182738
13,2,1,1,67,1,1,1,1,1,1,1,0,0,0,0,0.551990364
13,2,1,1,68,1,1,1,1,1,1,1,0,0,0,0,0.563551684
13,2,1,1,69,1,1,1,1,1,1,1,0,0,0,0,0.517743637
13,2,1,1,70,1,1,1,1,1,1,1,0,0,0,0,0.588796008
13,2,1,1,71,0,1,0,1,1,1,1,0,0,0,0,0.497174961
13,2,1,1,72,1,1,0,0,1,1,1,-1,0,0,0,0.67579473
13,2,1,1,73,0,1,0,1,0,1,1,0,-1,0,0,0.561122009
13,2,1,1,74,0,1,0,0,1,0,1,-1,0,-1,0,0.597935369
13,2,1,1,75,1,0,1,0,0,1,0,-1,-1,0,-1,0.667151183
13,2,1,1,76,1,0,1,-1,0,0,1,0,-1,-1,0,0.584132878
13,2,1,1,77,1,0,1,-1,-1,0,0,0,0,-1,-1,0.59018348
13,2,1,1,78,1,0,1,-1,-1,-1,0,0,0,0,-1,0.553282257
13,2,1,1,79,1,0,1,-1,-1,-1,-1,0,0,0,0,0.745423395
13,2,1,1,80,1,0,1,-1,-1,-1,-1,0,0,0,0,0.584171663
13,2,1,1,81,1,0,1,-1,-1,-1,-1,0,0,0,0,0.490781938
13,2,1,1,82,1,0,1,-1,-1,-1,-1,0,0,0,0,0.641344296
13,2,1,1,83,0,0,1,-1,-1,-1,-1,0,0,0,0,1.218399556
13,2,1,1,84,1,0,1,0,-1,-1,-1,1,0,0,0,0.564166563
13,2,1,1,85,1,0,1,-1,0,-1,-1,0,1,0,0,0.548722134
13,2,1,1,86,1,0,1,-1,-1,0,-1,0,0,1,0,0.598596865
13,2,1,1,87,1,0,1,-1,-1,-1,0,0,0,0,1,0.639810985
13,2,1,1,88,0,0,1,-1,-1,-1,-1,0,0,0,0,0.635142637
13,2,1,1,89,1,0,1,0,-1,-1,-1,1,0,0,0,0.678814352
13,2,1,1,90,1,0,1,-1,0,-1,-1,0,1,0,0,0.523858714
13,2,1,1,91,0,0,0,-1,-1,0,-1,0,0,1,0,0.485214776
13,2,1,1,92,0,0,0,0,-1,-1,0,1,0,0,1,0.479736346
13,2,1,1,93,1,1,1,0,0,-1,-1,1,1,0,0,1.035487051
13,2,1,1,94,1,1,1,1,0,0,-1,0,1,1,0,1.02186003
13,2,1,1,95,1,1,1,1,1,0,0,0,0,1,1,0.812497945
13,2,1,1,96,1,1,1,1,1,1,0,0,0,0,1,0.768864666
13,2,1,1,97,1,1,1,1,1,1,1,0,0,0,0,0.614006045
13,2,1,1,98,0,1,1,1,1,1,1,0,0,0,0,0.680447243
13,2,1,1,99,0,0,0,0,1,1,1,-1,0,0,0,0.616353614
13,2,1,1,100,1,1,1,0,0,1,1,1,-1,0,0,0.533938071
13,2,1,1,101,0,1,1,1,0,0,1,0,1,-1,0,0.612918011
13,2,1,1,102,0,0,0,0,1,0,0,-1,0,1,-1,0.723600624
13,2,1,1,103,1,1,1,0,0,1,0,1,-1,0,1,0.535372919
13,2,1,1,104,1,1,1,1,0,0,1,0,1,-1,0,0.527495975
13,2,1,1,105,1,1,1,1,1,0,0,0,0,1,-1,0.551653072
13,2,1,1,106,0,1,0,1,1,1,0,0,0,0,1,0.588881638
13,2,1,1,107,0,0,1,0,1,1,1,-1,0,0,0,0.644598063
13,2,1,1,108,0,1,0,0,0,1,1,1,-1,0,0,0.766068145
13,2,1,1,109,0,0,1,0,0,0,1,-1,1,-1,0,0.588070736
13,2,1,1,110,1,0,1,0,0,0,0,1,-1,1,-1,0.636981322
13,2,1,1,111,1,0,1,-1,0,0,0,0,1,-1,1,0.534452281
13,2,1,1,112,1,0,1,-1,-1,0,0,0,0,1,-1,0.538799704
13,2,1,1,113,1,0,1,-1,-1,-1,0,0,0,0,1,0.573586231
13,2,1,1,114,1,0,1,-1,-1,-1,-1,0,0,0,0,0.547980001
13,2,1,1,115,1,0,1,-1,-1,-1,-1,0,0,0,0,0.629124776
13,2,1,1,116,1,0,1,-1,-1,-1,-1,0,0,0,0,0.599682966
13,2,1,1,117,1,0,1,-1,-1,-1,-1,0,0,0,0,0.573033334
13,2,1,1,118,1,1,0,-1,-1,-1,-1,0,0,0,0,0.640454546
13,2,1,1,119,1,1,0,1,-1,-1,-1,0,0,0,0,0.665152654
13,2,1,1,120,0,1,0,1,1,-1,-1,0,0,0,0,0.637372666
13,2,1,1,121,0,1,0,0,1,1,-1,-1,0,0,0,0.72763869
13,2,1,1,122,0,0,1,0,0,1,1,-1,-1,0,0,1.056699158
13,2,1,1,123,0,1,0,0,0,0,1,1,-1,-1,0,0.557466227
13,2,1,1,124,1,0,1,0,0,0,0,-1,1,-1,-1,0.624991354
13,2,1,1,125,1,0,1,-1,0,0,0,0,-1,1,-1,0.5541052
13,2,1,1,126,1,0,0,-1,-1,0,0,0,0,-1,1,0.482119102
